Time Stamp	Low Noise Accelerometer X	Low Noise Accelerometer Y	Low Noise Accelerometer Z	Gyroscope X	Gyroscope Y	Gyroscope Z	Magnetometer X	Magnetometer Y	Magnetometer Z	Quaternion 0	Quaternion 1	Quaternion 2	Quaternion 3
CAL	CAL	CAL	CAL	CAL	CAL	CAL	CAL	CAL	CAL	CAL	CAL	CAL	CAL
milliseconds	m/(s^2)	m/(s^2)	m/(s^2)	degrees/s	degrees/s	degrees/s	local flux	local flux	local flux	normalised quaternion	normalised quaternion	normalised quaternion	normalised quaternion
112253.8757324219	-6.565217391304348	2.41304347826087	2.945652173913044	0.9923664122137405	0.9618320610687022	-3.297709923664122	-1.856071964017991	1.133433283358321	-0.5217391304347826	0.5030585249501434	0.4941794893734466	0.5051616095068112	0.497524372305592
112273.4069824219	-6.543478260869565	2.380434782608696	2.967391304347826	0.732824427480916	0.6717557251908397	-3.251908396946565	-1.868065967016492	1.139430284857571	-0.5172413793103449	0.5061597433871955	0.488292237011858	0.5102390863704667	0.4950041213848582
112292.9382324219	-6.565217391304348	2.33695652173913	2.967391304347826	1.053435114503817	0.8854961832061068	-2.977099236641221	-1.859070464767616	1.134932533733133	-0.5187406296851574	0.5091796917139889	0.4823839218427892	0.5153273482413272	0.4924220929732731
112312.4694824219	-6.58695652173913	2.326086956521739	2.945652173913044	1.053435114503817	0.8091603053435115	-3.221374045801527	-1.848575712143928	1.145427286356822	-0.5142428785607196	0.5122232217233965	0.4764049457398145	0.5204431391855366	0.4896985171272758
112332.0007324219	-6.58695652173913	2.402173913043478	2.956521739130435	1.206106870229008	0.7175572519083969	-3.511450381679389	-1.860569715142429	1.131934032983508	-0.5217391304347826	0.5152659083717215	0.4703260928069991	0.5255849505305261	0.4868828091754641
112351.5319824219	-6.565217391304348	2.402173913043478	2.967391304347826	0.7938931297709924	1.053435114503817	-3.435114503816794	-1.853073463268366	1.136431784107946	-0.5187406296851574	0.5183042617389068	0.4641222686543725	0.5306912423037693	0.484064063264861
112371.0632324219	-6.565217391304348	2.347826086956522	2.956521739130435	1.114503816793893	0.9923664122137405	-3.068702290076336	-1.841079460269865	1.139430284857571	-0.5187406296851574	0.5212825163886092	0.4579384905382374	0.5357693561024929	0.4811528593416445
112390.5944824219	-6.576086956521739	2.347826086956522	2.945652173913044	0.9770992366412213	0.5954198473282443	-3.16030534351145	-1.856071964017991	1.140929535232384	-0.5157421289355322	0.5242996537638641	0.451693316377328	0.5407976046087674	0.4781432545300232
112410.1257324219	-6.58695652173913	2.402173913043478	2.945652173913044	1.068702290076336	0.366412213740458	-3.587786259541985	-1.841079460269865	1.134932533733133	-0.512743628185907	0.5273518417441498	0.445361209828571	0.5458431267778222	0.4749828509941122
112429.6569824219	-6.576086956521739	2.423913043478261	2.934782608695652	0.9465648854961831	1.038167938931298	-3.450381679389313	-1.847076461769115	1.136431784107946	-0.5187406296851574	0.5303191278483697	0.4389074376612377	0.5509167536507063	0.4718184124753487
112449.1882324219	-6.543478260869565	2.347826086956522	2.967391304347826	1.022900763358779	1.007633587786259	-2.946564885496183	-1.854572713643178	1.12743628185907	-0.5112443778110944	0.5332400394614689	0.4324435380786271	0.5558710078064364	0.4686737344565268
112468.7194824219	-6.554347826086956	2.33695652173913	2.989130434782608	1.099236641221374	0.6717557251908397	-3.343511450381679	-1.845577211394303	1.137931034482759	-0.5097451274362819	0.5362181533106605	0.42592575887954	0.5607853840347681	0.4653784406651976
112488.2507324219	-6.576086956521739	2.41304347826087	3	0.9770992366412213	0.4885496183206107	-3.49618320610687	-1.853073463268366	1.128935532233883	-0.512743628185907	0.5392082545499972	0.419311393702163	0.5656691958414182	0.4620073313409845
112507.7819824219	-6.576086956521739	2.41304347826087	2.978260869565217	0.7633587786259541	0.8702290076335878	-3.511450381679389	-1.856071964017991	1.140929535232384	-0.5262368815592203	0.5421526927783169	0.4126007475035736	0.5705589914343171	0.4585777122431563
112527.3132324219	-6.532608695652174	2.380434782608696	2.945652173913044	1.007633587786259	1.068702290076336	-3.175572519083969	-1.853073463268366	1.139430284857571	-0.5217391304347826	0.5450163622735798	0.4058721681853651	0.5754294000482542	0.4550889512026095
112546.8444824219	-6.554347826086956	2.326086956521739	2.956521739130435	0.8549618320610687	1.068702290076336	-3.083969465648855	-1.854572713643178	1.142428785607196	-0.5247376311844078	0.547870863259704	0.3990973681448461	0.5802231052747752	0.4515528275143683
112566.3757324219	-6.597826086956522	2.347826086956522	2.945652173913044	0.8549618320610687	0.8702290076335878	-3.297709923664122	-1.863568215892054	1.118440779610195	-0.5157421289355322	0.5507244627522451	0.3922327820208089	0.5849907555931795	0.4479306047871573
112585.9069824219	-6.576086956521739	2.423913043478261	2.945652173913044	1.175572519083969	0.9770992366412213	-3.297709923664122	-1.853073463268366	1.136431784107946	-0.5232383808095952	0.5535302728094761	0.3853376687370541	0.5897662927602627	0.4441788356727225
112605.4382324219	-6.554347826086956	2.380434782608696	2.956521739130435	0.9465648854961831	1.053435114503817	-2.992366412213741	-1.856071964017991	1.142428785607196	-0.5232383808095952	0.5563175057144313	0.3783999790360582	0.5944328223410247	0.4404246909800449
112624.9694824219	-6.543478260869565	2.315217391304348	2.967391304347826	1.007633587786259	0.6259541984732824	-2.916030534351145	-1.847076461769115	1.145427286356822	-0.5172413793103449	0.5591418427127827	0.3714713692942889	0.5989723743394297	0.4365793356316419
112644.5007324219	-6.576086956521739	2.369565217391304	2.956521739130435	0.8854961832061068	0.7480916030534351	-3.32824427480916	-1.850074962518741	1.128935532233883	-0.5187406296851574	0.5619479982050322	0.3644075868733052	0.6035213381717333	0.43264714527422
112664.0319824219	-6.554347826086956	2.423913043478261	2.967391304347826	0.8396946564885496	0.6564885496183206	-3.419847328244275	-1.857571214392804	1.134932533733133	-0.5292353823088456	0.564749701701455	0.3572763657423482	0.6080096563041981	0.4286439440268674
112683.5632324219	-6.543478260869565	2.402173913043478	2.978260869565217	1.236641221374046	0.732824427480916	-3.190839694656488	-1.847076461769115	1.145427286356822	-0.5187406296851574	0.5675115701515521	0.3501614309746867	0.6124319079059448	0.4245524092271343
112703.0944824219	-6.554347826086956	2.326086956521739	2.967391304347826	1.114503816793893	0.9007633587786259	-2.854961832061069	-1.856071964017991	1.134932533733133	-0.52023988005997	0.5702174752941259	0.3430168304312913	0.6167692836141286	0.4204606232457185
112722.6257324219	-6.576086956521739	2.358695652173913	2.945652173913044	1.129770992366412	0.5190839694656488	-3.007633587786259	-1.853073463268366	1.151424287856072	-0.52023988005997	0.5729506779389632	0.3358498063733866	0.6210443408767991	0.4162167162346359
112742.1569824219	-6.58695652173913	2.423913043478261	2.978260869565217	1.145038167938931	0.7938931297709924	-3.587786259541985	-1.847076461769115	1.142428785607196	-0.5112443778110944	0.5756884804664854	0.3285323911572303	0.6252946533259807	0.4118929933133646
112761.6882324219	-6.554347826086956	2.41304347826087	2.945652173913044	0.7633587786259541	0.8854961832061068	-2.961832061068702	-1.859070464767616	1.143928035982009	-0.5307346326836582	0.5783474355594426	0.3212009965065096	0.6294497271703967	0.4075993186821522
112781.2194824219	-6.543478260869565	2.326086956521739	2.967391304347826	0.8549618320610687	0.8702290076335878	-3.083969465648855	-1.857571214392804	1.163418290854573	-0.5307346326836582	0.5810397132243571	0.3138568538429673	0.6334829453797523	0.4032196484113156
112800.7507324219	-6.58695652173913	2.33695652173913	2.945652173913044	0.9007633587786259	0.9465648854961831	-3.251908396946565	-1.850074962518741	1.131934032983508	-0.5247376311844078	0.5836823932312342	0.3064326461846551	0.6374985665671591	0.3987599212671033
112820.2819824219	-6.576086956521739	2.41304347826087	2.967391304347826	0.9770992366412213	0.7175572519083969	-3.526717557251908	-1.842578710644678	1.131934032983508	-0.5232383808095952	0.586356000630017	0.2989440403945301	0.6414207213254457	0.3942062397934739
112839.8132324219	-6.576086956521739	2.402173913043478	2.956521739130435	1.007633587786259	1.114503816793893	-3.389312977099237	-1.857571214392804	1.140929535232384	-0.512743628185907	0.5889795548754068	0.2914006846894369	0.6452780824384597	0.3896215102196481
112859.3444824219	-6.554347826086956	2.347826086956522	2.956521739130435	1.022900763358779	0.8091603053435115	-3.251908396946565	-1.848575712143928	1.151424287856072	-0.5142428785607196	0.5916415776841948	0.2838833527095395	0.6489784885725268	0.3849641632410306
112878.8757324219	-6.554347826086956	2.33695652173913	2.956521739130435	1.129770992366412	0.7938931297709924	-3.083969465648855	-1.854572713643178	1.130434782608696	-0.5187406296851574	0.5942613040392966	0.2763434899211038	0.6525902506849287	0.3802811365433755
112898.4069824219	-6.58695652173913	2.402173913043478	2.978260869565217	0.8702290076335878	0.6564885496183206	-3.450381679389313	-1.848575712143928	1.140929535232384	-0.5187406296851574	0.5969295347719233	0.2687099372167497	0.6560915149062097	0.3755183407318749
112917.9382324219	-6.565217391304348	2.402173913043478	2.934782608695652	0.9923664122137405	0.8854961832061068	-3.49618320610687	-1.851574212893553	1.140929535232384	-0.52023988005997	0.5995339890156991	0.26103390971572	0.6595659133019753	0.3706657524017833
112937.4694824219	-6.532608695652174	2.358695652173913	2.956521739130435	0.8091603053435115	1.221374045801527	-3.038167938931298	-1.851574212893553	1.137931034482759	-0.5187406296851574	0.6021175231618944	0.2533393078280256	0.6628757623578735	0.3658816845498971
112957.0007324219	-6.543478260869565	2.326086956521739	2.934782608695652	0.9618320610687022	0.6870229007633587	-3.145038167938931	-1.848575712143928	1.158920539730135	-0.5187406296851574	0.6047691582383838	0.245685034615586	0.6660416603165908	0.3609454747358581
112976.5319824219	-6.58695652173913	2.391304347826087	2.956521739130435	0.9618320610687022	0.8549618320610687	-3.587786259541985	-1.847076461769115	1.151424287856072	-0.512743628185907	0.6074282160203267	0.2379176732591689	0.669130191036771	0.3559366946191431
112996.0632324219	-6.565217391304348	2.423913043478261	2.978260869565217	0.9465648854961831	0.7938931297709924	-3.404580152671755	-1.860569715142429	1.146926536731634	-0.52023988005997	0.6100909531289536	0.2301222920401563	0.6720635539302272	0.3509463478867713
113015.5944824219	-6.554347826086956	2.358695652173913	2.956521739130435	1.038167938931298	0.6870229007633587	-3.007633587786259	-1.851574212893553	1.145427286356822	-0.5292353823088456	0.6127265763791865	0.2223920273171627	0.6748750193457971	0.3459069774482922
113035.1257324219	-6.543478260869565	2.315217391304348	2.956521739130435	1.221374045801527	0.9465648854961831	-2.977099236641221	-1.847076461769115	1.139430284857571	-0.52023988005997	0.6153701408698408	0.2146509629622707	0.6775531803956606	0.3408316909574691
113054.6569824219	-6.597826086956522	2.380434782608696	2.956521739130435	1.083969465648855	0.7633587786259541	-3.236641221374046	-1.842578710644678	1.133433283358321	-0.5187406296851574	0.6180323283500531	0.2068354356474109	0.6801283041664925	0.3356793612159809
113074.1882324219	-6.58695652173913	2.423913043478261	2.956521739130435	0.9770992366412213	0.6412213740458015	-3.419847328244275	-1.842578710644678	1.151424287856072	-0.5157421289355322	0.6207708544757066	0.1989788730773972	0.6825228163768921	0.3304747485471555
113093.7194824219	-6.554347826086956	2.391304347826087	2.967391304347826	1.175572519083969	0.9618320610687022	-2.992366412213741	-1.847076461769115	1.139430284857571	-0.5172413793103449	0.6234899990605208	0.1911497610483442	0.684755367452708	0.3253184234982389
113113.2507324219	-6.543478260869565	2.315217391304348	2.956521739130435	0.8854961832061068	1.007633587786259	-2.961832061068702	-1.851574212893553	1.148425787106447	-0.5217391304347826	0.6262576516754413	0.1833147862850147	0.68680552761893	0.3201487311849354
113132.7819824219	-6.576086956521739	2.358695652173913	2.967391304347826	1.038167938931298	0.2290076335877863	-3.32824427480916	-1.856071964017991	1.139430284857571	-0.5217391304347826	0.6291455406784525	0.1754552546145276	0.6886499499436448	0.3148850404753845
113152.3132324219	-6.58695652173913	2.402173913043478	2.978260869565217	1.022900763358779	0.8854961832061068	-3.603053435114504	-1.851574212893553	1.139430284857571	-0.5157421289355322	0.632037209052529	0.1675064968210228	0.6903701571977128	0.3096119925756166
113171.8444824219	-6.554347826086956	2.402173913043478	2.956521739130435	1.083969465648855	1.190839694656489	-3.083969465648855	-1.851574212893553	1.152923538230884	-0.5142428785607196	0.6349376694948979	0.1596224878660951	0.6919084410462378	0.3043641346032593
113191.3757324219	-6.565217391304348	2.33695652173913	2.956521739130435	1.16030534351145	1.145038167938931	-2.992366412213741	-1.860569715142429	1.136431784107946	-0.5232383808095952	0.6378399248387864	0.1517553672227516	0.6933057894991516	0.2990946690392479
113210.9069824219	-6.576086956521739	2.358695652173913	2.956521739130435	0.8854961832061068	0.6259541984732824	-3.145038167938931	-1.848575712143928	1.130434782608696	-0.5187406296851574	0.6408903289832413	0.1438673926478037	0.6944283644363225	0.2938213848833499
113230.4382324219	-6.597826086956522	2.41304347826087	2.989130434782608	1.145038167938931	0.8244274809160305	-3.541984732824427	-1.850074962518741	1.143928035982009	-0.5172413793103449	0.6440968491463809	0.1359909137042644	0.695261494984759	0.2885431924359707
113249.9694824219	-6.543478260869565	2.391304347826087	2.967391304347826	0.8854961832061068	1.083969465648855	-3.175572519083969	-1.847076461769115	1.136431784107946	-0.5172413793103449	0.6473482588560393	0.128136220166524	0.6958621461129648	0.2833676312576107
113269.5007324219	-6.532608695652174	2.358695652173913	2.967391304347826	0.7633587786259541	1.068702290076336	-3.175572519083969	-1.847076461769115	1.158920539730135	-0.5217391304347826	0.6507708005319386	0.1204154273693048	0.6961305062041276	0.2782082104440354
113289.0319824219	-6.565217391304348	2.33695652173913	2.956521739130435	0.9465648854961831	0.6717557251908397	-3.114503816793893	-1.856071964017991	1.139430284857571	-0.5247376311844078	0.6541939542295796	0.1126852224262909	0.6962962353372536	0.2729539586658747
113308.5632324219	-6.58695652173913	2.402173913043478	2.945652173913044	1.068702290076336	0.916030534351145	-3.480916030534351	-1.860569715142429	1.152923538230884	-0.5307346326836582	0.6576955149948935	0.104952247138299	0.6962808806299179	0.2676089883495123
113328.0944824219	-6.565217391304348	2.423913043478261	2.956521739130435	0.9923664122137405	0.916030534351145	-3.16030534351145	-1.850074962518741	1.145427286356822	-0.5187406296851574	0.661623519739486	0.09745960904426662	0.6955645515734408	0.2625755078580467
113347.6257324219	-6.554347826086956	2.33695652173913	2.934782608695652	0.9312977099236641	1.007633587786259	-3.053435114503817	-1.848575712143928	1.134932533733133	-0.5172413793103449	0.6655772008076766	0.09004789299812867	0.6947338612739994	0.2573775995127288
113367.1569824219	-6.554347826086956	2.315217391304348	2.934782608695652	0.9312977099236641	1.022900763358779	-3.129770992366412	-1.851574212893553	1.142428785607196	-0.5097451274362819	0.6700559274481766	0.08307407611283124	0.693170257379696	0.2522672120068911
113386.6882324219	-6.597826086956522	2.402173913043478	2.956521739130435	1.038167938931298	0.3816793893129771	-3.435114503816794	-1.847076461769115	1.148425787106447	-0.5172413793103449	0.6754943092410042	0.07714433237992389	0.6904218319138864	0.2471313095933976
113406.2194824219	-6.576086956521739	2.423913043478261	2.945652173913044	0.9312977099236641	0.6717557251908397	-3.511450381679389	-1.854572713643178	1.145427286356822	-0.5217391304347826	0.680785729144575	0.07813613168508127	0.6870707561391172	0.2415767206847603
113425.7507324219	-6.554347826086956	2.358695652173913	2.945652173913044	0.7480916030534351	0.8549618320610687	-3.099236641221374	-1.857571214392804	1.148425787106447	-0.5082458770614693	0.6812420445650579	0.08058977683806091	0.6881244581466574	0.2364303167666542
113445.2819824219	-6.576086956521739	2.347826086956522	2.978260869565217	0.9770992366412213	0.7633587786259541	-2.946564885496183	-1.860569715142429	1.124437781109445	-0.5082458770614693	0.6864640107441634	0.08025999408318643	0.6851343554389165	0.2300356717991894
113464.8132324219	-6.58695652173913	2.391304347826087	2.945652173913044	0.9312977099236641	0.5648854961832061	-3.404580152671755	-1.859070464767616	1.139430284857571	-0.52023988005997	0.6838211084570965	0.08563929198080707	0.6874891179465434	0.2289395466113655
113484.3444824219	-6.565217391304348	2.402173913043478	2.967391304347826	0.7022900763358778	0.8244274809160305	-3.526717557251908	-1.857571214392804	1.139430284857571	-0.5172413793103449	0.6860204384428823	0.09200071052187342	0.6854664652560137	0.2259370538701706
113503.8757324219	-6.532608695652174	2.391304347826087	2.945652173913044	1.175572519083969	0.9465648854961831	-3.221374045801527	-1.854572713643178	1.131934032983508	-0.5142428785607196	0.686324453157849	0.09323698424591277	0.6870016990317127	0.2197595852149503
113523.4069824219	-6.543478260869565	2.326086956521739	2.934782608695652	1.145038167938931	0.6259541984732824	-3.175572519083969	-1.853073463268366	1.139430284857571	-0.5172413793103449	0.690065823286084	0.09521682518750789	0.685284685337938	0.2124330854057205
113542.9382324219	-6.565217391304348	2.369565217391304	2.945652173913044	0.9007633587786259	0.8396946564885496	-3.374045801526718	-1.854572713643178	1.125937031484258	-0.5217391304347826	0.6902859584807395	0.1002334015678406	0.685598852307539	0.2083573239630712
113562.4694824219	-6.576086956521739	2.402173913043478	2.945652173913044	0.732824427480916	0.732824427480916	-3.526717557251908	-1.854572713643178	1.15592203898051	-0.5337331334332833	0.6909759570095326	0.107051850752084	0.6849897403448618	0.2046489279414702
113582.0007324219	-6.554347826086956	2.380434782608696	2.945652173913044	0.9312977099236641	0.9618320610687022	-3.16030534351145	-1.854572713643178	1.134932533733133	-0.5217391304347826	0.6940285534679515	0.1087291473646022	0.6838129763204367	0.1972362869766496
113601.5319824219	-6.565217391304348	2.358695652173913	2.967391304347826	1.297709923664122	0.7175572519083969	-2.946564885496183	-1.84407796101949	1.130434782608696	-0.5187406296851574	0.697058061037941	0.1128499047903066	0.6818790972916072	0.1908293876938972
113621.0632324219	-6.576086956521739	2.358695652173913	2.967391304347826	1.114503816793893	0.7022900763358778	-3.419847328244275	-1.839580209895052	1.134932533733133	-0.5157421289355322	0.698767582326113	0.1173705361772287	0.6810038388808672	0.1848831916565441
113640.5944824219	-6.58695652173913	2.41304347826087	2.978260869565217	1.129770992366412	0.7175572519083969	-3.190839694656488	-1.845577211394303	1.133433283358321	-0.5187406296851574	0.700044457013571	0.1228172543704092	0.6799959054510146	0.1801645048375052
113660.1257324219	-6.576086956521739	2.402173913043478	2.978260869565217	1.007633587786259	1.129770992366412	-3.206106870229008	-1.84407796101949	1.133433283358321	-0.5217391304347826	0.7015981100058613	0.1269625490240613	0.6792180756711689	0.1740787432832348
113679.6569824219	-6.576086956521739	2.326086956521739	2.945652173913044	1.145038167938931	0.7480916030534351	-2.916030534351145	-1.847076461769115	1.142428785607196	-0.5082458770614693	0.7040992319483584	0.1291783760592249	0.6779911255496049	0.1669887792769716
113699.1882324219	-6.565217391304348	2.358695652173913	2.967391304347826	0.9007633587786259	0.4732824427480916	-3.374045801526718	-1.857571214392804	1.134932533733133	-0.5097451274362819	0.706489265408366	0.1331921526239506	0.6760899012101799	0.1613543114507786
113718.7194824219	-6.58695652173913	2.41304347826087	2.956521739130435	0.7633587786259541	0.9770992366412213	-3.389312977099237	-1.851574212893553	1.130434782608696	-0.5217391304347826	0.7066194647434111	0.1377608781653711	0.676088847606125	0.1568908621796151
113738.2507324219	-6.576086956521739	2.402173913043478	2.945652173913044	0.8854961832061068	1.099236641221374	-3.236641221374046	-1.857571214392804	1.136431784107946	-0.5157421289355322	0.7079505314721563	0.1418128634149264	0.6750217316123587	0.151792024195621
113757.7819824219	-6.543478260869565	2.347826086956522	2.956521739130435	0.8854961832061068	0.8244274809160305	-3.129770992366412	-1.853073463268366	1.142428785607196	-0.5262368815592203	0.7098742275826	0.1453662950392667	0.6736483469994647	0.1454136371371429
113777.3132324219	-6.576086956521739	2.33695652173913	2.956521739130435	1.068702290076336	0.5954198473282443	-3.267175572519084	-1.847076461769115	1.133433283358321	-0.5142428785607196	0.7118423862937977	0.1484256580153882	0.6722340647280748	0.1391100403904086
113796.8444824219	-6.597826086956522	2.391304347826087	2.956521739130435	0.7480916030534351	0.7786259541984733	-3.66412213740458	-1.853073463268366	1.151424287856072	-0.5232383808095952	0.7129025898687836	0.1532207046270012	0.6709786716102248	0.1344653683152802
113816.3757324219	-6.565217391304348	2.423913043478261	2.967391304347826	0.9618320610687022	0.9465648854961831	-3.175572519083969	-1.854572713643178	1.140929535232384	-0.5247376311844078	0.7141072467502435	0.1580270008581951	0.6694871345110388	0.129866407753311
113835.9069824219	-6.576086956521739	2.369565217391304	2.956521739130435	0.6106870229007634	1.221374045801527	-3.175572519083969	-1.84407796101949	1.137931034482759	-0.52023988005997	0.7154371142612777	0.1611471630985842	0.6684476133574262	0.1239318988781129
113855.4382324219	-6.576086956521739	2.33695652173913	2.934782608695652	1.007633587786259	0.8702290076335878	-3.068702290076336	-1.841079460269865	1.139430284857571	-0.5187406296851574	0.7167282341070564	0.1641392547875459	0.6674142711726369	0.1179709036443637
113874.9694824219	-6.565217391304348	2.391304347826087	2.945652173913044	1.145038167938931	0.7175572519083969	-3.16030534351145	-1.851574212893553	1.133433283358321	-0.5187406296851574	0.7180835243109598	0.1681046440023762	0.6658184569215812	0.1130604404756592
113894.5007324219	-6.58695652173913	2.402173913043478	2.945652173913044	0.9007633587786259	1.038167938931298	-3.374045801526718	-1.851574212893553	1.125937031484258	-0.52023988005997	0.7190064503848294	0.1715452009211235	0.6647771848490784	0.1080428750546443
113914.0319824219	-6.576086956521739	2.358695652173913	2.967391304347826	1.221374045801527	0.9618320610687022	-3.068702290076336	-1.856071964017991	1.145427286356822	-0.512743628185907	0.7211623581392056	0.1749461077889844	0.6624139856670661	0.1025983633653938
113933.5632324219	-6.576086956521739	2.33695652173913	2.967391304347826	0.9312977099236641	0.9312977099236641	-3.083969465648855	-1.860569715142429	1.122938530734633	-0.5232383808095952	0.7222956526419877	0.1773530779267237	0.6614347770723688	0.09663804428706366
113953.0944824219	-6.58695652173913	2.369565217391304	2.945652173913044	0.9465648854961831	0.4580152671755725	-3.282442748091603	-1.850074962518741	1.137931034482759	-0.5172413793103449	0.7233872589743391	0.1811377079741345	0.6598771772870501	0.0919897559467603
113972.6257324219	-6.565217391304348	2.41304347826087	2.934782608695652	1.206106870229008	0.8854961832061068	-3.267175572519084	-1.84407796101949	1.137931034482759	-0.5187406296851574	0.7241148257291619	0.1854572821183103	0.6584211899941019	0.08800484211261243
113992.1569824219	-6.576086956521739	2.369565217391304	2.945652173913044	1.114503816793893	0.7938931297709924	-3.145038167938931	-1.848575712143928	1.133433283358321	-0.5142428785607196	0.7252647381684346	0.1885501046529176	0.6569336643221072	0.08293418043951971
114011.6882324219	-6.554347826086956	2.326086956521739	2.945652173913044	0.9770992366412213	0.8549618320610687	-3.099236641221374	-1.857571214392804	1.134932533733133	-0.52023988005997	0.7264875363457384	0.1911612114865436	0.6554992411939704	0.07742089867358572
114031.2194824219	-6.597826086956522	2.369565217391304	2.934782608695652	0.9618320610687022	0.8549618320610687	-3.358778625954198	-1.851574212893553	1.143928035982009	-0.5172413793103449	0.7273336150966006	0.1945837480462127	0.6540691407612644	0.07291458325067357
114050.7507324219	-6.565217391304348	2.41304347826087	2.978260869565217	1.114503816793893	0.7633587786259541	-3.450381679389313	-1.850074962518741	1.136431784107946	-0.5232383808095952	0.7285573396904699	0.1986014670909724	0.6519552813955959	0.06867292852971953
114070.2819824219	-6.554347826086956	2.402173913043478	2.967391304347826	1.190839694656489	0.916030534351145	-3.038167938931298	-1.856071964017991	1.148425787106447	-0.5307346326836582	0.7294354519047809	0.2024251585273361	0.6502453947401424	0.06425654300448666
114089.8132324219	-6.543478260869565	2.33695652173913	2.934782608695652	0.9465648854961831	1.083969465648855	-3.114503816793893	-1.851574212893553	1.125937031484258	-0.5232383808095952	0.7300748801496991	0.20472201234659	0.6493091681892691	0.05896754311080511
114109.3444824219	-6.58695652173913	2.347826086956522	2.923913043478261	1.038167938931298	0.7786259541984733	-3.083969465648855	-1.856071964017991	1.136431784107946	-0.5172413793103449	0.7308081497531066	0.2073741147234566	0.6480558848263163	0.05421249799708489
114128.8757324219	-6.608695652173913	2.41304347826087	2.945652173913044	1.221374045801527	0.5648854961832061	-3.374045801526718	-1.857571214392804	1.134932533733133	-0.527736131934033	0.7313665888028078	0.2107673213453389	0.6466622429513041	0.05007986199105971
114148.4069824219	-6.576086956521739	2.41304347826087	2.956521739130435	1.236641221374046	0.8702290076335878	-3.068702290076336	-1.847076461769115	1.143928035982009	-0.5187406296851574	0.7324923879082766	0.214474838175784	0.6444551207208534	0.04618487655685531
114167.9382324219	-6.576086956521739	2.347826086956522	2.967391304347826	0.9618320610687022	0.9770992366412213	-3.206106870229008	-1.857571214392804	1.133433283358321	-0.5187406296851574	0.7335929224305542	0.2167891703734517	0.6427689770994542	0.04113297761056115
114187.4694824219	-6.576086956521739	2.347826086956522	2.956521739130435	1.007633587786259	1.038167938931298	-3.145038167938931	-1.848575712143928	1.136431784107946	-0.52023988005997	0.7344543375718415	0.2195104480764904	0.6411392436745108	0.03650286875907277
114207.0007324219	-6.597826086956522	2.41304347826087	2.945652173913044	1.083969465648855	0.7175572519083969	-3.557251908396947	-1.845577211394303	1.139430284857571	-0.5262368815592203	0.7348776998176759	0.2229010516701341	0.6396886895551772	0.03268436828531478
114226.5319824219	-6.576086956521739	2.391304347826087	2.967391304347826	0.9770992366412213	0.732824427480916	-3.358778625954198	-1.848575712143928	1.157421289355322	-0.5082458770614693	0.7362657170738526	0.226196995445524	0.6371152421164477	0.02884235385753671
114246.0632324219	-6.543478260869565	2.347826086956522	2.967391304347826	0.8244274809160305	0.9312977099236641	-3.16030534351145	-1.842578710644678	1.134932533733133	-0.5217391304347826	0.7370269207616583	0.2287366631523531	0.6355190598915381	0.02421531575451236
114265.5944824219	-6.58695652173913	2.33695652173913	2.945652173913044	1.099236641221374	0.6259541984732824	-3.16030534351145	-1.845577211394303	1.133433283358321	-0.527736131934033	0.737298593933073	0.2310829690300551	0.6345131794413644	0.01960790462490098
114285.1257324219	-6.576086956521739	2.391304347826087	2.978260869565217	0.9312977099236641	1.099236641221374	-3.694656488549618	-1.83808095952024	1.145427286356822	-0.5172413793103449	0.7382705205948885	0.2343004779216264	0.6323048414980927	0.01582756722687971
114304.6569824219	-6.576086956521739	2.41304347826087	2.967391304347826	0.9007633587786259	1.083969465648855	-3.49618320610687	-1.851574212893553	1.139430284857571	-0.52023988005997	0.7388014894254067	0.2373014479858464	0.6306457575632229	0.0120958866615844
114324.1882324219	-6.543478260869565	2.347826086956522	2.956521739130435	1.175572519083969	0.916030534351145	-2.931297709923664	-1.851574212893553	1.131934032983508	-0.5307346326836582	0.7391749224767239	0.2397162623504771	0.6293628652025056	0.007676682248141407
114343.7194824219	-6.565217391304348	2.326086956521739	2.945652173913044	1.190839694656489	0.9007633587786259	-3.099236641221374	-1.854572713643178	1.136431784107946	-0.527736131934033	0.7395788495207774	0.2419459572686316	0.6280722070059061	0.003252981650607826
114363.2507324219	-6.597826086956522	2.358695652173913	2.978260869565217	0.9007633587786259	0.5496183206106871	-3.32824427480916	-1.859070464767616	1.139430284857571	-0.5232383808095952	0.7403433665141971	0.2444057266495773	0.6262242656410824	-0.000842354797272694
114382.7819824219	-6.565217391304348	2.41304347826087	2.967391304347826	0.9312977099236641	0.6717557251908397	-3.786259541984733	-1.850074962518741	1.146926536731634	-0.5187406296851574	0.7410976121030759	0.2475852566485686	0.6240665787677507	-0.00409576494641768
114402.3132324219	-6.554347826086956	2.380434782608696	2.934782608695652	0.9923664122137405	0.9465648854961831	-3.114503816793893	-1.850074962518741	1.131934032983508	-0.5232383808095952	0.7412635809046314	0.2501750627901129	0.6228006553541213	-0.00775146907901128
114421.8444824219	-6.576086956521739	2.315217391304348	2.934782608695652	1.022900763358779	0.8702290076335878	-2.977099236641221	-1.853073463268366	1.128935532233883	-0.5247376311844078	0.7414606387395661	0.2520592127775695	0.6217376604991419	-0.01202314313813565
114441.3757324219	-6.576086956521739	2.347826086956522	2.934782608695652	0.7938931297709924	0.8549618320610687	-3.435114503816794	-1.859070464767616	1.134932533733133	-0.5187406296851574	0.7418878267231149	0.2543000784993972	0.6202299805876252	-0.01577002902749012
114460.9069824219	-6.576086956521739	2.402173913043478	2.956521739130435	1.053435114503817	0.8396946564885496	-3.541984732824427	-1.853073463268366	1.154422788605697	-0.5247376311844078	0.7425016568847292	0.2573687913120865	0.6181406792851686	-0.01883335856552336
114480.4382324219	-6.565217391304348	2.391304347826087	2.934782608695652	0.9770992366412213	1.16030534351145	-3.16030534351145	-1.847076461769115	1.134932533733133	-0.5172413793103449	0.7427910628153007	0.2599699077156281	0.6165941076016955	-0.02210860816317285
114499.9694824219	-6.543478260869565	2.33695652173913	2.967391304347826	0.8854961832061068	0.9312977099236641	-3.038167938931298	-1.842578710644678	1.154422788605697	-0.5217391304347826	0.7436295440436478	0.2624131197657331	0.6144035247869979	-0.02574421351613867
114519.5007324219	-6.597826086956522	2.358695652173913	2.978260869565217	0.9465648854961831	0.6564885496183206	-3.49618320610687	-1.848575712143928	1.136431784107946	-0.5187406296851574	0.7440774352612338	0.2644929989379358	0.61279621460222	-0.02954696629218162
114539.0319824219	-6.554347826086956	2.402173913043478	2.978260869565217	0.8396946564885496	0.7480916030534351	-3.633587786259542	-1.854572713643178	1.139430284857571	-0.5232383808095952	0.7445476413013902	0.2670688886836574	0.610939271341657	-0.03280587237581259
114558.5632324219	-6.532608695652174	2.402173913043478	2.956521739130435	1.282442748091603	0.7480916030534351	-3.053435114503817	-1.841079460269865	1.142428785607196	-0.5187406296851574	0.7449433855614095	0.2698568040614829	0.6090595448346542	-0.03582078245699891
114578.0944824219	-6.576086956521739	2.304347826086957	2.945652173913044	1.038167938931298	0.7786259541984733	-3.022900763358778	-1.856071964017991	1.136431784107946	-0.5247376311844078	0.7449781358916273	0.2714195490423034	0.6080708100285689	-0.03986095122182727
114597.6257324219	-6.554347826086956	2.358695652173913	2.967391304347826	1.129770992366412	0.8702290076335878	-3.374045801526718	-1.854572713643178	1.139430284857571	-0.5307346326836582	0.745234256799286	0.2736711781036273	0.6065078717480745	-0.04333809266464903
114617.1569824219	-6.58695652173913	2.423913043478261	2.945652173913044	1.083969465648855	0.6412213740458015	-3.358778625954198	-1.848575712143928	1.154422788605697	-0.5367316341829085	0.7452683572681927	0.2765375122327105	0.6049646576933658	-0.04604175197428349
114636.6882324219	-6.576086956521739	2.391304347826087	2.967391304347826	1.053435114503817	1.114503816793893	-3.038167938931298	-1.856071964017991	1.130434782608696	-0.5187406296851574	0.7455304395298722	0.278641744741429	0.6034164080475594	-0.04931308468174836
114656.2194824219	-6.565217391304348	2.347826086956522	2.945652173913044	1.175572519083969	1.038167938931298	-3.129770992366412	-1.848575712143928	1.128935532233883	-0.527736131934033	0.7455463877730952	0.2805432661058612	0.6022174377038979	-0.05282250700693246
114675.7507324219	-6.565217391304348	2.326086956521739	2.956521739130435	1.007633587786259	0.916030534351145	-3.175572519083969	-1.851574212893553	1.142428785607196	-0.5262368815592203	0.7458811075059092	0.282417953540064	0.6006106476362735	-0.05628785774868843
114695.2819824219	-6.576086956521739	2.391304347826087	2.956521739130435	0.8854961832061068	0.7022900763358778	-3.572519083969465	-1.859070464767616	1.136431784107946	-0.5187406296851574	0.7461842683796299	0.2845763698575999	0.5989280028245395	-0.05925010357826911
114714.8132324219	-6.58695652173913	2.423913043478261	2.956521739130435	0.5801526717557252	0.9618320610687022	-3.374045801526718	-1.84407796101949	1.151424287856072	-0.512743628185907	0.7466225438996953	0.2871193462732463	0.5969260975888325	-0.06161567944719178
114734.3444824219	-6.554347826086956	2.33695652173913	2.956521739130435	0.8396946564885496	1.083969465648855	-3.038167938931298	-1.848575712143928	1.137931034482759	-0.5172413793103449	0.7468747502247658	0.2888561543341955	0.5954225362188068	-0.06490171756368841
114753.8757324219	-6.565217391304348	2.33695652173913	2.967391304347826	0.7175572519083969	0.5954198473282443	-3.068702290076336	-1.850074962518741	1.136431784107946	-0.5232383808095952	0.747106854603509	0.2905826442102553	0.593921770779934	-0.06819094428041619
114773.4069824219	-6.58695652173913	2.391304347826087	2.978260869565217	1.083969465648855	0.916030534351145	-3.267175572519084	-1.853073463268366	1.140929535232384	-0.5217391304347826	0.7473177493763619	0.2927375624549183	0.5922643997501803	-0.07101958732322053
114792.9382324219	-6.576086956521739	2.402173913043478	2.934782608695652	1.022900763358779	1.068702290076336	-3.282442748091603	-1.854572713643178	1.143928035982009	-0.5217391304347826	0.7472447139025297	0.2949693997509956	0.5909341002147404	-0.07358858579059141
114812.4694824219	-6.554347826086956	2.358695652173913	2.923913043478261	1.267175572519084	0.5038167938931297	-3.114503816793893	-1.83808095952024	1.130434782608696	-0.52023988005997	0.7471801531313672	0.2968997133739307	0.589675781476932	-0.07651700271595742
114832.0007324219	-6.554347826086956	2.315217391304348	2.956521739130435	1.022900763358779	1.022900763358779	-3.206106870229008	-1.850074962518741	1.142428785607196	-0.527736131934033	0.7473311940542859	0.2985082708228011	0.5882417850224058	-0.07975274915280686
114851.5319824219	-6.608695652173913	2.391304347826087	2.967391304347826	1.099236641221374	0.732824427480916	-3.480916030534351	-1.856071964017991	1.143928035982009	-0.5172413793103449	0.7475391577089821	0.3004912150827401	0.5865973140999538	-0.08242468344230401
114871.0632324219	-6.565217391304348	2.434782608695652	2.934782608695652	0.8549618320610687	0.8091603053435115	-3.679389312977099	-1.847076461769115	1.143928035982009	-0.5217391304347826	0.747562400837739	0.3028513542690377	0.5850416256145887	-0.08460384370325481
114890.5944824219	-6.543478260869565	2.358695652173913	2.945652173913044	1.099236641221374	1.236641221374046	-3.312977099236641	-1.850074962518741	1.125937031484258	-0.52023988005997	0.7475195415388174	0.3044803520492806	0.5838123734552194	-0.0875748984248667
114910.1257324219	-6.565217391304348	2.326086956521739	2.945652173913044	0.9923664122137405	1.114503816793893	-3.053435114503817	-1.862068965517241	1.124437781109445	-0.5157421289355322	0.7475010270880167	0.3057717952093014	0.5826790607445084	-0.0907245056571733
114929.6569824219	-6.58695652173913	2.369565217391304	2.967391304347826	0.8549618320610687	0.5954198473282443	-3.297709923664122	-1.856071964017991	1.12743628185907	-0.5082458770614693	0.747784743349294	0.3073785522730277	0.5810368840349653	-0.09344807439164438
114949.1882324219	-6.58695652173913	2.423913043478261	2.945652173913044	0.8244274809160305	0.8854961832061068	-3.450381679389313	-1.857571214392804	1.116941529235382	-0.52023988005997	0.7475870449767289	0.3093004854119104	0.5798783044198297	-0.0958539095191329
114968.7194824219	-6.543478260869565	2.369565217391304	2.967391304347826	0.916030534351145	0.8549618320610687	-3.145038167938931	-1.854572713643178	1.11544227886057	-0.5097451274362819	0.7478255480416405	0.3108700976980233	0.5782740741787101	-0.09856889563243237
114988.2507324219	-6.543478260869565	2.326086956521739	2.945652173913044	0.8244274809160305	0.8702290076335878	-3.007633587786259	-1.851574212893553	1.125937031484258	-0.52023988005997	0.7478437137890591	0.3123639749468854	0.5769644386431958	-0.1013437883775384
115007.7819824219	-6.576086956521739	2.347826086956522	2.956521739130435	0.7022900763358778	0.9465648854961831	-3.358778625954198	-1.850074962518741	1.143928035982009	-0.512743628185907	0.7480994619470648	0.3140594008770606	0.5752857611891418	-0.1037312909795469
115027.3132324219	-6.565217391304348	2.434782608695652	2.967391304347826	0.7633587786259541	0.9007633587786259	-3.572519083969465	-1.856071964017991	1.139430284857571	-0.5142428785607196	0.7482973117036035	0.3161933317945789	0.5735069407046523	-0.1056536757022404
115046.8444824219	-6.565217391304348	2.391304347826087	2.956521739130435	1.16030534351145	1.068702290076336	-3.389312977099237	-1.863568215892054	1.124437781109445	-0.5112443778110944	0.7482071719181045	0.3178149334760095	0.5722627925215815	-0.1081433874323942
115066.3757324219	-6.554347826086956	2.326086956521739	2.923913043478261	1.038167938931298	1.190839694656489	-2.870229007633588	-1.847076461769115	1.128935532233883	-0.52023988005997	0.7479361879889478	0.3193015131933297	0.5712940618851701	-0.1107298389042208
115085.9069824219	-6.576086956521739	2.347826086956522	2.967391304347826	1.145038167938931	0.732824427480916	-3.221374045801527	-1.84407796101949	1.137931034482759	-0.5187406296851574	0.7480710005406311	0.3209100290757675	0.5697308711679975	-0.1131956970334277
115105.4382324219	-6.58695652173913	2.423913043478261	2.956521739130435	1.16030534351145	0.8702290076335878	-3.877862595419847	-1.854572713643178	1.143928035982009	-0.5262368815592203	0.7479821069010219	0.322930800213842	0.5682999692858762	-0.1152111580482911
115124.9694824219	-6.554347826086956	2.402173913043478	2.967391304347826	0.9618320610687022	0.9770992366412213	-3.267175572519084	-1.854572713643178	1.130434782608696	-0.5142428785607196	0.7480738674443814	0.3246341639290202	0.5667574699571922	-0.1174057865040495
115144.5007324219	-6.565217391304348	2.358695652173913	2.956521739130435	0.9618320610687022	0.916030534351145	-2.946564885496183	-1.850074962518741	1.128935532233883	-0.52023988005997	0.7479597014443959	0.3260877268252388	0.565559264802074	-0.1198574045509746
115164.0319824219	-6.565217391304348	2.315217391304348	2.967391304347826	1.145038167938931	1.007633587786259	-3.129770992366412	-1.850074962518741	1.140929535232384	-0.5172413793103449	0.7480492476817608	0.3273492183201821	0.5641541541192848	-0.1224536757221754
115183.5632324219	-6.58695652173913	2.391304347826087	2.934782608695652	1.022900763358779	0.9770992366412213	-3.541984732824427	-1.845577211394303	1.142428785607196	-0.5187406296851574	0.7478782998177623	0.3291432788964583	0.562908748364953	-0.1244045482817387
115203.0944824219	-6.554347826086956	2.402173913043478	2.967391304347826	0.9465648854961831	0.8854961832061068	-3.389312977099237	-1.853073463268366	1.143928035982009	-0.5187406296851574	0.7480075490809149	0.3309059349431491	0.5612675618866748	-0.1263514650138695
115222.6257324219	-6.543478260869565	2.347826086956522	2.967391304347826	1.16030534351145	1.343511450381679	-3.16030534351145	-1.863568215892054	1.134932533733133	-0.5172413793103449	0.747955716047651	0.3321816597168661	0.5600228340171531	-0.1288100041098918
115242.1569824219	-6.576086956521739	2.33695652173913	2.934782608695652	0.8854961832061068	0.6717557251908397	-3.038167938931298	-1.845577211394303	1.157421289355322	-0.5217391304347826	0.7479002744109375	0.3337124092579313	0.5587101022935669	-0.1308595775571027
115261.6882324219	-6.58695652173913	2.402173913043478	2.978260869565217	1.251908396946565	0.7938931297709924	-3.312977099236641	-1.862068965517241	1.140929535232384	-0.5232383808095952	0.7478205276786167	0.3353152023662964	0.5573597111418058	-0.1329598655250811
115281.2194824219	-6.576086956521739	2.402173913043478	2.989130434782608	0.9007633587786259	0.9770992366412213	-3.419847328244275	-1.857571214392804	1.136431784107946	-0.5172413793103449	0.7478624620911992	0.336793940276849	0.5559102653049516	-0.1350383520199433
115300.7507324219	-6.543478260869565	2.358695652173913	2.956521739130435	0.9770992366412213	1.022900763358779	-3.022900763358778	-1.850074962518741	1.146926536731634	-0.5142428785607196	0.7479069304835367	0.3382525017932589	0.5544741536390523	-0.1370360584355516
115320.2819824219	-6.554347826086956	2.33695652173913	2.978260869565217	0.9770992366412213	0.8854961832061068	-3.022900763358778	-1.854572713643178	1.134932533733133	-0.5157421289355322	0.7478752892426647	0.3393690169439381	0.5532395145932035	-0.1394175798505419
115339.8132324219	-6.58695652173913	2.391304347826087	2.923913043478261	0.9618320610687022	0.9618320610687022	-3.267175572519084	-1.848575712143928	1.137931034482759	-0.5172413793103449	0.747485618769528	0.3409568943713595	0.552328821295979	-0.14123214605453
115359.3444824219	-6.576086956521739	2.434782608695652	2.967391304347826	0.9923664122137405	0.9465648854961831	-3.679389312977099	-1.850074962518741	1.128935532233883	-0.5232383808095952	0.7472553711887932	0.3425981038118857	0.5511513140595301	-0.1430670419923916
115378.8757324219	-6.554347826086956	2.380434782608696	2.945652173913044	1.282442748091603	0.7175572519083969	-3.16030534351145	-1.853073463268366	1.128935532233883	-0.5217391304347826	0.7469889192982618	0.343987237726878	0.5500994207821033	-0.1451584030700303
115398.4069824219	-6.554347826086956	2.33695652173913	2.989130434782608	1.145038167938931	1.007633587786259	-3.068702290076336	-1.854572713643178	1.140929535232384	-0.5142428785607196	0.7471710378552918	0.3450588390717042	0.5485848349765733	-0.1473923899068729
115417.9382324219	-6.565217391304348	2.380434782608696	2.956521739130435	0.9465648854961831	0.6412213740458015	-3.389312977099237	-1.853073463268366	1.145427286356822	-0.5172413793103449	0.7471262032357204	0.346486583932113	0.5472543429516554	-0.1492051195977664
115437.4694824219	-6.597826086956522	2.423913043478261	2.956521739130435	1.038167938931298	0.5190839694656488	-3.419847328244275	-1.853073463268366	1.140929535232384	-0.5262368815592203	0.7468514667960534	0.3480887212059509	0.5461429074035847	-0.1509140596715518
115457.0007324219	-6.543478260869565	2.380434782608696	2.956521739130435	1.068702290076336	1.129770992366412	-3.190839694656488	-1.845577211394303	1.130434782608696	-0.5172413793103449	0.7466882437213221	0.3494181802422043	0.5449860179966815	-0.1528196394208382
115476.5319824219	-6.554347826086956	2.326086956521739	2.967391304347826	1.175572519083969	1.083969465648855	-2.916030534351145	-1.84407796101949	1.154422788605697	-0.5172413793103449	0.7467793063435214	0.3505939819555847	0.5435571800941844	-0.1547582611742411
115496.0632324219	-6.608695652173913	2.33695652173913	2.978260869565217	0.8091603053435115	0.9312977099236641	-3.419847328244275	-1.850074962518741	1.140929535232384	-0.5367316341829085	0.7463963270360021	0.3516029773494531	0.5427881907991732	-0.1569995198563541
115515.5944824219	-6.58695652173913	2.41304347826087	2.945652173913044	1.175572519083969	-0.1374045801526718	-3.648854961832061	-1.841079460269865	1.140929535232384	-0.5187406296851574	0.7462812727345453	0.3531681288341984	0.5414709748102956	-0.1585740148304464
115535.1257324219	-6.554347826086956	2.423913043478261	2.967391304347826	0.8702290076335878	1.083969465648855	-3.053435114503817	-1.862068965517241	1.143928035982009	-0.5307346326836582	0.74610917879786	0.3547243185225849	0.5402392730422136	-0.1601039631773414
115554.6569824219	-6.565217391304348	2.347826086956522	2.934782608695652	0.7175572519083969	0.8091603053435115	-2.977099236641221	-1.859070464767616	1.140929535232384	-0.52023988005997	0.7458296518581613	0.3557627419203575	0.5393685668134697	-0.1620263898382815
115574.1882324219	-6.543478260869565	2.347826086956522	2.945652173913044	0.916030534351145	1.007633587786259	-3.083969465648855	-1.850074962518741	1.139430284857571	-0.5172413793103449	0.7457061283801347	0.3568692032351238	0.5382544518866878	-0.1638562995517692
115593.7194824219	-6.597826086956522	2.402173913043478	2.945652173913044	1.068702290076336	0.3511450381679389	-3.465648854961832	-1.842578710644678	1.137931034482759	-0.5157421289355322	0.7455241670494226	0.3582233112227092	0.5371174219683117	-0.1654528653726408
115613.2507324219	-6.554347826086956	2.41304347826087	2.945652173913044	0.8396946564885496	1.541984732824427	-3.206106870229008	-1.851574212893553	1.136431784107946	-0.52023988005997	0.745278009040239	0.3596315173032386	0.5360650405358783	-0.1669135504339149
115632.7819824219	-6.554347826086956	2.347826086956522	2.956521739130435	1.083969465648855	0.5801526717557252	-3.16030534351145	-1.856071964017991	1.151424287856072	-0.5172413793103449	0.7453062793528473	0.360660310705581	0.5347681214974764	-0.1687179494571629
115652.3132324219	-6.565217391304348	2.326086956521739	2.967391304347826	0.916030534351145	1.221374045801527	-2.961832061068702	-1.850074962518741	1.131934032983508	-0.5232383808095952	0.7450327213921489	0.3614690569040756	0.5339418912566531	-0.1707993609975024
115671.8444824219	-6.58695652173913	2.391304347826087	2.956521739130435	0.8091603053435115	0.5038167938931297	-3.419847328244275	-1.854572713643178	1.143928035982009	-0.5247376311844078	0.7448569255727356	0.3627105401542172	0.5328409774410639	-0.1723650696835641
115691.3757324219	-6.58695652173913	2.402173913043478	2.978260869565217	1.053435114503817	1.099236641221374	-3.16030534351145	-1.862068965517241	1.16191904047976	-0.5367316341829085	0.7447512705963894	0.3641377532465709	0.5315649275172811	-0.1737468544726799
115710.9069824219	-6.554347826086956	2.33695652173913	2.967391304347826	0.9618320610687022	0.6106870229007634	-3.297709923664122	-1.847076461769115	1.136431784107946	-0.5187406296851574	0.7446530327045594	0.3649734319557664	0.5304930662317005	-0.1756797129164914
115730.4382324219	-6.554347826086956	2.326086956521739	2.967391304347826	1.083969465648855	1.145038167938931	-3.053435114503817	-1.845577211394303	1.137931034482759	-0.5217391304347826	0.7444759606172363	0.3658763532888036	0.5295027507237772	-0.1775299274575508
115749.9694824219	-6.554347826086956	2.391304347826087	2.989130434782608	1.145038167938931	0.9007633587786259	-3.572519083969465	-1.854572713643178	1.137931034482759	-0.5217391304347826	0.7444304264966666	0.3670422529168638	0.5282235127954847	-0.1791179645085963
115769.5007324219	-6.58695652173913	2.423913043478261	2.967391304347826	1.129770992366412	0.9312977099236641	-3.587786259541985	-1.853073463268366	1.133433283358321	-0.5217391304347826	0.7441265289010327	0.3683586405248578	0.5272448829065025	-0.1805559591519689
115789.0319824219	-6.521739130434782	2.369565217391304	2.945652173913044	0.9618320610687022	0.9770992366412213	-3.099236641221374	-1.845577211394303	1.142428785607196	-0.52023988005997	0.7440047601980757	0.3695627700819508	0.5260934419451965	-0.1819504496125676
115808.5632324219	-6.554347826086956	2.33695652173913	2.956521739130435	0.8702290076335878	1.312977099236641	-3.236641221374046	-1.851574212893553	1.139430284857571	-0.5187406296851574	0.7437584004699123	0.3704120609575116	0.5252462600797342	-0.1836701203241793
115828.0944824219	-6.684782608695652	2.358695652173913	2.945652173913044	1.267175572519084	0.3053435114503817	-3.465648854961832	-1.839580209895052	1.142428785607196	-0.5217391304347826	0.7432660297035291	0.371416429075621	0.5246497243374738	-0.1853324365945681
115847.6257324219	-6.521739130434782	2.423913043478261	3.032608695652174	1.236641221374046	1.007633587786259	-3.465648854961832	-1.856071964017991	1.139430284857571	-0.5232383808095952	0.7436030669820218	0.3726491272270285	0.5228219998225732	-0.186666181332854
115867.1569824219	-6.597826086956522	2.369565217391304	2.91304347826087	1.068702290076336	0.7022900763358778	-3.206106870229008	-1.853073463268366	1.128935532233883	-0.5187406296851574	0.7429669357541446	0.3736669879526573	0.5224246857008322	-0.1882699186298017
115886.6882324219	-6.445652173913043	2.315217391304348	3	0.7175572519083969	1.129770992366412	-3.129770992366412	-1.848575712143928	1.139430284857571	-0.52023988005997	0.7433381208739162	0.3743405913411534	0.5208010019338291	-0.1899575639839345
115906.2194824219	-6.804347826086956	2.326086956521739	2.945652173913044	0.9007633587786259	2.412213740458015	-3.49618320610687	-1.851574212893553	1.148425787106447	-0.5217391304347826	0.7423569789628124	0.3750907477621659	0.521045222708547	-0.1916374770785347
115925.7507324219	-6.358695652173913	2.434782608695652	2.902173913043478	0.7022900763358778	-1.541984732824427	-3.557251908396947	-1.853073463268366	1.149925037481259	-0.5262368815592203	0.7427791499683417	0.3768208147337835	0.518961110961417	-0.1922617311514885
115945.2819824219	-6.706521739130435	2.402173913043478	2.923913043478261	1.114503816793893	4.381679389312977	-3.190839694656488	-1.851574212893553	1.137931034482759	-0.527736131934033	0.7416482226049567	0.3780448340388852	0.5192350579589925	-0.1934811927545992
115964.8132324219	-6.478260869565217	2.315217391304348	2.967391304347826	1.068702290076336	-1.526717557251908	-3.099236641221374	-1.853073463268366	1.134932533733133	-0.5157421289355322	0.7420405519662111	0.3785373429115069	0.5176024753429029	-0.1953790592107472
115984.3444824219	-6.641304347826087	2.358695652173913	2.902173913043478	0.8854961832061068	2.305343511450382	-3.343511450381679	-1.853073463268366	1.140929535232384	-0.5187406296851574	0.7412948139342619	0.3795489983584479	0.5174382224723078	-0.1966780175921189
116003.8757324219	-6.554347826086956	2.423913043478261	3.043478260869565	1.007633587786259	-0.0916030534351145	-3.648854961832061	-1.856071964017991	1.131934032983508	-0.5232383808095952	0.7416975949061659	0.3804548919840692	0.5156409719200243	-0.1981240544536979
116023.4069824219	-6.608695652173913	2.423913043478261	2.902173913043478	0.916030534351145	0.9618320610687022	-3.175572519083969	-1.842578710644678	1.145427286356822	-0.5142428785607196	0.7412816924913914	0.3818472479233067	0.5148892378317086	-0.1989552824017925
116042.9382324219	-6.5	2.347826086956522	2.989130434782608	1.038167938931298	0.9007633587786259	-3.053435114503817	-1.854572713643178	1.139430284857571	-0.5187406296851574	0.7414266346069491	0.3825307504146733	0.5135700027706152	-0.2005059169620462
116062.4694824219	-6.597826086956522	2.33695652173913	2.945652173913044	1.221374045801527	1.145038167938931	-3.312977099236641	-1.845577211394303	1.136431784107946	-0.52023988005997	0.7409457215408272	0.3832901689479311	0.5130744969103281	-0.202095632655491
116082.0007324219	-6.5	2.391304347826087	3.032608695652174	0.9618320610687022	0.2748091603053435	-3.511450381679389	-1.862068965517241	1.151424287856072	-0.5187406296851574	0.7415061849609234	0.3841379265177052	0.5111370836376569	-0.2033359604343659
116101.5319824219	-6.619565217391304	2.41304347826087	2.967391304347826	1.053435114503817	1.312977099236641	-3.282442748091603	-1.854572713643178	1.136431784107946	-0.5172413793103449	0.7410230957318672	0.3851842524099971	0.5105577170312424	-0.2045695013122857
116121.0632324219	-6.489130434782608	2.326086956521739	2.967391304347826	1.007633587786259	1.404580152671756	-3.038167938931298	-1.856071964017991	1.131934032983508	-0.52023988005997	0.7407803901707539	0.3858087039537959	0.5097886514541066	-0.206183385219473
116140.5944824219	-6.597826086956522	2.326086956521739	2.891304347826087	1.099236641221374	1.068702290076336	-3.038167938931298	-1.850074962518741	1.136431784107946	-0.5217391304347826	0.7400075108396869	0.3866828756855049	0.5096790323229062	-0.2075873829567324
116160.1257324219	-6.565217391304348	2.369565217391304	2.989130434782608	0.9007633587786259	0.8091603053435115	-3.511450381679389	-1.850074962518741	1.145427286356822	-0.5292353823088456	0.7399530173572434	0.3875653427369306	0.5085771011097614	-0.2088347898217826
116179.6569824219	-6.565217391304348	2.402173913043478	2.91304347826087	0.9770992366412213	0.183206106870229	-3.32824427480916	-1.856071964017991	1.148425787106447	-0.5337331334332833	0.7395305056821334	0.3888092523608844	0.5078395195034694	-0.2098118654284921
116199.1882324219	-6.554347826086956	2.358695652173913	3.021739130434783	1.068702290076336	2.152671755725191	-2.977099236641221	-1.853073463268366	1.146926536731634	-0.5412293853073463	0.739429734059101	0.3896099689743828	0.5068192389837236	-0.211144499007261
116218.7194824219	-6.576086956521739	2.33695652173913	2.956521739130435	1.16030534351145	0.366412213740458	-3.282442748091603	-1.841079460269865	1.154422788605697	-0.5172413793103449	0.739395409772715	0.390412839419844	0.5057556754069711	-0.2123286123366624
116238.2507324219	-6.565217391304348	2.391304347826087	2.945652173913044	0.6412213740458015	1.679389312977099	-3.480916030534351	-1.854572713643178	1.124437781109445	-0.5187406296851574	0.7388984773173883	0.3912516577289029	0.5053119484570902	-0.2135673553915241
116257.7819824219	-6.58695652173913	2.423913043478261	2.967391304347826	0.8244274809160305	0.6106870229007634	-3.557251908396947	-1.848575712143928	1.131934032983508	-0.5187406296851574	0.738703224320595	0.3922401110095177	0.5043858506254595	-0.2146162980354233
116277.3132324219	-6.554347826086956	2.380434782608696	2.956521739130435	1.190839694656489	1.114503816793893	-3.190839694656488	-1.848575712143928	1.12143928035982	-0.5187406296851574	0.7383344094578113	0.3930389383650167	0.5037314821702367	-0.2159566776232268
116296.8444824219	-6.554347826086956	2.315217391304348	2.956521739130435	1.221374045801527	0.4885496183206107	-3.083969465648855	-1.845577211394303	1.128935532233883	-0.52023988005997	0.7380685146326445	0.3935430583525483	0.503046760403011	-0.2175377801176622
116316.3757324219	-6.576086956521739	2.369565217391304	2.978260869565217	1.083969465648855	0.9618320610687022	-3.511450381679389	-1.848575712143928	1.140929535232384	-0.5232383808095952	0.7379477593157918	0.3943657998585975	0.5020828832155041	-0.2186812721855653
116335.9069824219	-6.597826086956522	2.402173913043478	2.967391304347826	0.8702290076335878	0.5343511450381679	-3.251908396946565	-1.842578710644678	1.12743628185907	-0.5157421289355322	0.7377393592032494	0.3952635771293074	0.5012226621290047	-0.2197343519926651
116355.4382324219	-6.554347826086956	2.369565217391304	2.91304347826087	0.6870229007633587	1.358778625954199	-2.992366412213741	-1.853073463268366	1.119940029985008	-0.52023988005997	0.7371534518489551	0.3960892185589063	0.5009202644194863	-0.2209004483075511
116374.9694824219	-6.565217391304348	2.315217391304348	2.91304347826087	0.8702290076335878	0.9007633587786259	-2.931297709923664	-1.845577211394303	1.142428785607196	-0.512743628185907	0.7369143852449989	0.3967737549385273	0.5002468176491987	-0.2219930125990825
116394.5007324219	-6.58695652173913	2.33695652173913	2.923913043478261	0.8549618320610687	0.9007633587786259	-3.587786259541985	-1.856071964017991	1.140929535232384	-0.5187406296851574	0.7365666327273676	0.3974354529862138	0.4997014448261019	-0.2231885353261151
116414.0319824219	-6.565217391304348	2.434782608695652	2.989130434782608	0.8854961832061068	0.7175572519083969	-3.435114503816794	-1.856071964017991	1.134932533733133	-0.5172413793103449	0.7366839281255674	0.3984240002259067	0.4983857117948793	-0.2239794373691078
116433.5632324219	-6.565217391304348	2.402173913043478	2.978260869565217	1.038167938931298	1.038167938931298	-3.16030534351145	-1.853073463268366	1.134932533733133	-0.5187406296851574	0.7365940719362748	0.3992865184473735	0.4973888566726033	-0.224952827571547
116453.0944824219	-6.554347826086956	2.33695652173913	2.934782608695652	1.007633587786259	1.114503816793893	-3.312977099236641	-1.848575712143928	1.151424287856072	-0.5172413793103449	0.7364080628796839	0.4000130979798699	0.496622029966134	-0.2259629299744866
116472.6257324219	-6.58695652173913	2.347826086956522	2.956521739130435	0.7480916030534351	1.022900763358779	-3.16030534351145	-1.850074962518741	1.134932533733133	-0.52023988005997	0.736079592961197	0.4005816978789104	0.4960874741451147	-0.2271967300531592
116492.1569824219	-6.565217391304348	2.423913043478261	2.956521739130435	0.9618320610687022	0.6717557251908397	-3.511450381679389	-1.856071964017991	1.134932533733133	-0.5217391304347826	0.7358621330012365	0.4015497204017819	0.49522119418574	-0.2280804947586945
116511.6882324219	-6.58695652173913	2.391304347826087	2.956521739130435	1.022900763358779	0.8702290076335878	-3.374045801526718	-1.851574212893553	1.131934032983508	-0.52023988005997	0.735537530118463	0.402312215967206	0.4945802647375049	-0.2291719537879082
116531.2194824219	-6.532608695652174	2.33695652173913	2.967391304347826	0.8091603053435115	1.175572519083969	-2.931297709923664	-1.851574212893553	1.134932533733133	-0.5172413793103449	0.7354463803829405	0.4027948172664282	0.4937681806374097	-0.2303647988624963
116550.7507324219	-6.576086956521739	2.33695652173913	2.967391304347826	1.312977099236641	0.5343511450381679	-3.267175572519084	-1.848575712143928	1.140929535232384	-0.5187406296851574	0.7352747461622157	0.4033585891622312	0.4929874508611787	-0.2315950549958706
116570.2819824219	-6.58695652173913	2.402173913043478	2.945652173913044	0.8244274809160305	1.022900763358779	-3.526717557251908	-1.856071964017991	1.137931034482759	-0.5187406296851574	0.7349432855432118	0.4042345344387954	0.4923571572728987	-0.2324591101336948
116589.8132324219	-6.554347826086956	2.380434782608696	2.934782608695652	1.007633587786259	0.7938931297709924	-3.267175572519084	-1.853073463268366	1.136431784107946	-0.512743628185907	0.7347110470869536	0.405031650531142	0.4916190976553511	-0.2333660261840818
116609.3444824219	-6.554347826086956	2.33695652173913	2.956521739130435	1.053435114503817	0.9007633587786259	-3.068702290076336	-1.851574212893553	1.125937031484258	-0.512743628185907	0.7344401691624634	0.4054690705894388	0.4910443182471381	-0.2346656093959072
116628.8757324219	-6.543478260869565	2.326086956521739	2.978260869565217	1.145038167938931	0.7175572519083969	-3.221374045801527	-1.853073463268366	1.140929535232384	-0.5217391304347826	0.734365576066756	0.4059360190493475	0.4901854180423473	-0.2358843044061196
116648.4069824219	-6.608695652173913	2.402173913043478	2.956521739130435	0.8549618320610687	0.7786259541984733	-3.526717557251908	-1.848575712143928	1.145427286356822	-0.5142428785607196	0.7341862921322538	0.4068452424575341	0.4893705753854999	-0.2365668554164507
116667.9382324219	-6.565217391304348	2.434782608695652	2.989130434782608	1.099236641221374	0.8549618320610687	-3.49618320610687	-1.860569715142429	1.134932533733133	-0.5217391304347826	0.7340438701009908	0.4077391897668107	0.4884329117452926	-0.2374060669390729
116687.4694824219	-6.554347826086956	2.369565217391304	2.923913043478261	0.9770992366412213	1.404580152671756	-2.916030534351145	-1.842578710644678	1.133433283358321	-0.5172413793103449	0.7336034489177069	0.4085689793780808	0.4879898177501486	-0.2382505122726407
116707.0007324219	-6.576086956521739	2.33695652173913	2.934782608695652	1.022900763358779	0.7480916030534351	-3.099236641221374	-1.851574212893553	1.136431784107946	-0.5247376311844078	0.7331437711958646	0.4091185635134569	0.4876406366052705	-0.2394343778086141
116726.5319824219	-6.58695652173913	2.391304347826087	2.956521739130435	0.9312977099236641	0.7786259541984733	-3.465648854961832	-1.856071964017991	1.145427286356822	-0.5262368815592203	0.7329071740126215	0.4099000278527159	0.4869228156462552	-0.240281528733065
116746.0632324219	-6.576086956521739	2.391304347826087	3	0.8549618320610687	1.022900763358779	-3.190839694656488	-1.854572713643178	1.136431784107946	-0.5157421289355322	0.7329336554100867	0.4104546451005355	0.4859486402564752	-0.2412242942066245
116765.5944824219	-6.565217391304348	2.369565217391304	2.967391304347826	1.038167938931298	0.8396946564885496	-3.16030534351145	-1.841079460269865	1.130434782608696	-0.52023988005997	0.7326811602869295	0.4110748582279133	0.4852953941503839	-0.2422481345850226
116785.1257324219	-6.554347826086956	2.315217391304348	2.945652173913044	1.374045801526717	1.038167938931298	-3.206106870229008	-1.856071964017991	1.148425787106447	-0.5232383808095952	0.7323583219942614	0.41157790965086	0.4847848605201961	-0.2433897111703618
116804.6569824219	-6.58695652173913	2.358695652173913	2.934782608695652	1.038167938931298	0.8396946564885496	-3.49618320610687	-1.853073463268366	1.148425787106447	-0.5232383808095952	0.7320015156952002	0.4122967905395657	0.4842718457592513	-0.2442660781517383
116824.1882324219	-6.565217391304348	2.402173913043478	2.967391304347826	0.916030534351145	0.7633587786259541	-3.374045801526718	-1.847076461769115	1.134932533733133	-0.5232383808095952	0.7318270017810032	0.4130709718701637	0.4834722644693258	-0.2450636267408284
116843.7194824219	-6.554347826086956	2.402173913043478	2.978260869565217	0.9923664122137405	1.038167938931298	-2.931297709923664	-1.851574212893553	1.133433283358321	-0.5157421289355322	0.7317530473467756	0.4137832810690737	0.4825760956032851	-0.2458478919143064
116863.2507324219	-6.58695652173913	2.33695652173913	2.967391304347826	1.16030534351145	1.114503816793893	-3.145038167938931	-1.84407796101949	1.128935532233883	-0.5112443778110944	0.7314371108252937	0.414142911473009	0.4821329330095932	-0.2470490572574065
116882.7819824219	-6.576086956521739	2.391304347826087	2.956521739130435	1.083969465648855	0.6870229007633587	-3.465648854961832	-1.847076461769115	1.139430284857571	-0.52023988005997	0.7311965028303781	0.4149054070735638	0.4814320115222409	-0.2478475251266268
116902.3132324219	-6.58695652173913	2.423913043478261	2.967391304347826	0.916030534351145	0.8702290076335878	-3.419847328244275	-1.84407796101949	1.142428785607196	-0.5232383808095952	0.7310116391965288	0.4158015807931852	0.480629030634427	-0.2484487143868997
116921.8444824219	-6.565217391304348	2.402173913043478	2.956521739130435	0.9770992366412213	0.8091603053435115	-3.404580152671755	-1.850074962518741	1.133433283358321	-0.5217391304347826	0.7307014404997919	0.416489823090833	0.4800455271681655	-0.2493349633708318
116941.3757324219	-6.554347826086956	2.33695652173913	2.967391304347826	1.145038167938931	0.7786259541984733	-2.885496183206107	-1.856071964017991	1.133433283358321	-0.5142428785607196	0.7304896359390836	0.4167870595783469	0.4794815010827013	-0.2505412717958863
116960.9069824219	-6.565217391304348	2.33695652173913	2.945652173913044	0.9770992366412213	0.6717557251908397	-3.038167938931298	-1.848575712143928	1.151424287856072	-0.5262368815592203	0.7302283199827373	0.4173637577135111	0.4789131459936235	-0.2514285048218222
116980.4382324219	-6.576086956521739	2.402173913043478	2.967391304347826	0.8854961832061068	0.5954198473282443	-3.374045801526718	-1.859070464767616	1.142428785607196	-0.52023988005997	0.7300530283915667	0.418035759718259	0.4781791430992584	-0.2522169432015606
116999.9694824219	-6.576086956521739	2.402173913043478	2.967391304347826	0.7938931297709924	1.145038167938931	-3.343511450381679	-1.851574212893553	1.139430284857571	-0.5262368815592203	0.7297561148010738	0.4187413749378019	0.4776069522725729	-0.2529886814988877
117019.5007324219	-6.554347826086956	2.347826086956522	2.945652173913044	1.007633587786259	1.221374045801527	-2.961832061068702	-1.845577211394303	1.151424287856072	-0.5217391304347826	0.7295360686613113	0.419364102753271	0.4769970248238639	-0.2537414277435294
117039.0319824219	-6.565217391304348	2.326086956521739	2.967391304347826	1.007633587786259	1.282442748091603	-2.83969465648855	-1.856071964017991	1.140929535232384	-0.5172413793103449	0.7292810886433653	0.4196543660194158	0.4765419840034474	-0.2548470998658771
117058.5632324219	-6.58695652173913	2.380434782608696	2.978260869565217	1.053435114503817	0.8549618320610687	-3.389312977099237	-1.853073463268366	1.140929535232384	-0.512743628185907	0.7291471614919701	0.4201774513864912	0.475823264528158	-0.2557098886791865
117078.0944824219	-6.58695652173913	2.434782608695652	2.967391304347826	0.916030534351145	0.8854961832061068	-3.32824427480916	-1.845577211394303	1.140929535232384	-0.5217391304347826	0.7289276729395876	0.4210746175366632	0.4750801087640046	-0.2562411058866472
117097.6257324219	-6.543478260869565	2.347826086956522	2.978260869565217	1.022900763358779	0.9465648854961831	-2.946564885496183	-1.845577211394303	1.133433283358321	-0.5157421289355322	0.7287668670736966	0.4214119771932491	0.4744576521240084	-0.2572950354644236
117117.1569824219	-6.543478260869565	2.326086956521739	2.967391304347826	0.8396946564885496	0.7938931297709924	-3.206106870229008	-1.850074962518741	1.148425787106447	-0.5172413793103449	0.7286375385666923	0.421734391435184	0.4738341294392934	-0.2582801932993968
117136.6882324219	-6.565217391304348	2.402173913043478	2.945652173913044	0.9618320610687022	0.8244274809160305	-3.419847328244275	-1.848575712143928	1.139430284857571	-0.52023988005997	0.728273811578522	0.4225163796082097	0.4733213111380732	-0.258967373918411
117156.2194824219	-6.565217391304348	2.423913043478261	2.978260869565217	1.16030534351145	0.916030534351145	-3.618320610687023	-1.850074962518741	1.142428785607196	-0.5187406296851574	0.7281133223689016	0.4232853777520642	0.4725235294238085	-0.2596189378898996
117175.7507324219	-6.554347826086956	2.358695652173913	2.956521739130435	1.221374045801527	0.732824427480916	-3.145038167938931	-1.848575712143928	1.15592203898051	-0.5172413793103449	0.7279549001692262	0.4238712987770903	0.471823484497697	-0.2603793096025219
117195.2819824219	-6.554347826086956	2.33695652173913	2.967391304347826	1.206106870229008	1.068702290076336	-3.312977099236641	-1.851574212893553	1.133433283358321	-0.5217391304347826	0.727511733920974	0.4241604517357984	0.4715681826772368	-0.2616066460873457
117214.8132324219	-6.58695652173913	2.358695652173913	2.967391304347826	1.190839694656489	0.6564885496183206	-3.358778625954198	-1.854572713643178	1.145427286356822	-0.5217391304347826	0.7271834757146123	0.4246405903904607	0.4711029875141126	-0.2625767255408116
117234.3444824219	-6.576086956521739	2.391304347826087	2.923913043478261	0.8396946564885496	1.099236641221374	-3.541984732824427	-1.839580209895052	1.152923538230884	-0.5172413793103449	0.7268563922493803	0.425503541308899	0.470579525357581	-0.263023633337453
117253.8757324219	-6.554347826086956	2.380434782608696	2.956521739130435	1.389312977099237	1.007633587786259	-3.16030534351145	-1.854572713643178	1.145427286356822	-0.5352323838080959	0.7264480018501585	0.4261958824308866	0.4701112275311837	-0.2638670198338431
117273.4069824219	-6.565217391304348	2.33695652173913	2.978260869565217	1.038167938931298	0.9312977099236641	-3.206106870229008	-1.850074962518741	1.151424287856072	-0.5142428785607196	0.7264002096630313	0.4264841842015142	0.4694016256664215	-0.2647944294149592
117292.9382324219	-6.576086956521739	2.380434782608696	2.967391304347826	0.7022900763358778	0.5190839694656488	-3.404580152671755	-1.853073463268366	1.131934032983508	-0.52023988005997	0.7260760777124009	0.4268927698398801	0.4689795855996247	-0.2657710306316608
117312.4694824219	-6.576086956521739	2.434782608695652	2.978260869565217	0.8702290076335878	1.053435114503817	-3.389312977099237	-1.857571214392804	1.142428785607196	-0.52023988005997	0.7258995454481648	0.4276510677131782	0.4682448137240811	-0.2663291358872085
117332.0007324219	-6.565217391304348	2.391304347826087	2.956521739130435	1.083969465648855	0.8854961832061068	-3.419847328244275	-1.835082458770615	1.143928035982009	-0.512743628185907	0.7257199534724609	0.4283218572988287	0.4675549340830438	-0.2669519044820843
117351.5319824219	-6.543478260869565	2.33695652173913	2.967391304347826	1.221374045801527	1.221374045801527	-3.068702290076336	-1.848575712143928	1.136431784107946	-0.5247376311844078	0.7253314939901884	0.4286418275322886	0.4672303285796303	-0.2680601193223482
117371.0632324219	-6.58695652173913	2.33695652173913	2.945652173913044	0.9007633587786259	0.5038167938931297	-3.297709923664122	-1.842578710644678	1.142428785607196	-0.5247376311844078	0.7248963506378505	0.4290436493712774	0.4669671406861538	-0.2690511425091905
117390.5944824219	-6.576086956521739	2.41304347826087	2.978260869565217	1.175572519083969	0.6870229007633587	-3.603053435114504	-1.848575712143928	1.148425787106447	-0.52023988005997	0.7247889843596889	0.4297573917985006	0.4661286148611356	-0.269654643485033
117410.1257324219	-6.576086956521739	2.380434782608696	2.956521739130435	1.282442748091603	0.8244274809160305	-3.297709923664122	-1.847076461769115	1.131934032983508	-0.52023988005997	0.7243642487352555	0.4302944257508021	0.46575781983816	-0.2705786310513088
117429.6569824219	-6.532608695652174	2.315217391304348	2.978260869565217	1.206106870229008	0.9923664122137405	-2.83969465648855	-1.847076461769115	1.136431784107946	-0.5247376311844078	0.7241182849071911	0.4304975882136078	0.465284476121088	-0.2717257666951364
117449.1882324219	-6.554347826086956	2.326086956521739	2.956521739130435	0.9465648854961831	0.7022900763358778	-3.053435114503817	-1.851574212893553	1.125937031484258	-0.5097451274362819	0.7237898707226422	0.4306935760907991	0.4649544436415152	-0.2728527659589123
117468.7194824219	-6.576086956521739	2.41304347826087	2.967391304347826	1.297709923664122	1.068702290076336	-3.572519083969465	-1.851574212893553	1.128935532233883	-0.5247376311844078	0.7233753466110435	0.4314389951478652	0.4644731652602927	-0.2735930922633793
117488.2507324219	-6.565217391304348	2.41304347826087	2.956521739130435	1.267175572519084	1.007633587786259	-3.49618320610687	-1.848575712143928	1.131934032983508	-0.527736131934033	0.7229761955731572	0.4322327519328088	0.4639591741940175	-0.274266573742337
117507.7819824219	-6.532608695652174	2.33695652173913	2.956521739130435	1.068702290076336	1.099236641221374	-3.114503816793893	-1.851574212893553	1.136431784107946	-0.5187406296851574	0.7227310068635878	0.4325925727363232	0.4634550042130106	-0.2751963241055954
117527.3132324219	-6.576086956521739	2.33695652173913	2.967391304347826	1.068702290076336	0.7786259541984733	-3.450381679389313	-1.853073463268366	1.124437781109445	-0.5247376311844078	0.7222712479325544	0.4328346880971705	0.4632341471716717	-0.2763919356347244
117546.8444824219	-6.58695652173913	2.380434782608696	2.945652173913044	1.114503816793893	0.732824427480916	-3.572519083969465	-1.851574212893553	1.148425787106447	-0.5187406296851574	0.7220042986988046	0.4335396800212698	0.4626272915261368	-0.2770002304018778
117566.3757324219	-6.576086956521739	2.434782608695652	2.978260869565217	1.038167938931298	0.6870229007633587	-3.251908396946565	-1.850074962518741	1.136431784107946	-0.5142428785607196	0.7219517287772806	0.4343099310610374	0.4617020096856561	-0.2774740336490587
117585.9069824219	-6.543478260869565	2.380434782608696	2.956521739130435	0.9770992366412213	1.053435114503817	-2.931297709923664	-1.850074962518741	1.136431784107946	-0.5187406296851574	0.7217135007579203	0.4348877592259218	0.4611117334552468	-0.278169424935778
117605.4382324219	-6.554347826086956	2.347826086956522	2.967391304347826	1.007633587786259	0.7633587786259541	-2.992366412213741	-1.847076461769115	1.12143928035982	-0.5187406296851574	0.7213567209500014	0.4351506655097899	0.4607612862063801	-0.2792622720313128
117624.9694824219	-6.619565217391304	2.380434782608696	2.945652173913044	1.16030534351145	0.5496183206106871	-3.267175572519084	-1.850074962518741	1.137931034482759	-0.52023988005997	0.7208890034520765	0.435757802778222	0.4604335116419001	-0.280062784705281
117644.5007324219	-6.576086956521739	2.41304347826087	2.956521739130435	0.9770992366412213	0.8549618320610687	-3.358778625954198	-1.854572713643178	1.12743628185907	-0.5172413793103449	0.7205723047077017	0.4363820609622425	0.4599067956281765	-0.2807703508093395
117664.0319824219	-6.532608695652174	2.369565217391304	2.956521739130435	1.053435114503817	1.083969465648855	-3.099236641221374	-1.854572713643178	1.110944527736132	-0.52023988005997	0.720152547274081	0.4367320807275653	0.4595910221423871	-0.2818181872841773
117683.5632324219	-6.565217391304348	2.326086956521739	2.945652173913044	1.068702290076336	1.022900763358779	-3.175572519083969	-1.850074962518741	1.125937031484258	-0.52023988005997	0.7196963864409102	0.4370247896745373	0.459371290872873	-0.2828859517113087
117703.0944824219	-6.58695652173913	2.369565217391304	2.967391304347826	1.297709923664122	0.7938931297709924	-3.206106870229008	-1.848575712143928	1.143928035982009	-0.5157421289355322	0.7195361355470339	0.4375985723532707	0.4586409926260713	-0.2835906891972864
117722.6257324219	-6.576086956521739	2.402173913043478	2.967391304347826	1.175572519083969	1.145038167938931	-3.572519083969465	-1.854572713643178	1.130434782608696	-0.5157421289355322	0.7192663676693101	0.4381940836384449	0.4580450331680218	-0.2843177535683735
117742.1569824219	-6.532608695652174	2.391304347826087	2.967391304347826	1.053435114503817	1.083969465648855	-3.175572519083969	-1.856071964017991	1.130434782608696	-0.5217391304347826	0.7190624773215569	0.4387565690409787	0.4573711131131823	-0.2850499810931109
117761.6882324219	-6.543478260869565	2.326086956521739	2.967391304347826	1.053435114503817	0.9007633587786259	-2.946564885496183	-1.854572713643178	1.139430284857571	-0.527736131934033	0.7187643417263334	0.4390560213021601	0.4569179825540863	-0.2860657065076683
117781.2194824219	-6.543478260869565	2.369565217391304	2.967391304347826	0.732824427480916	0.5496183206106871	-3.572519083969465	-1.851574212893553	1.131934032983508	-0.5142428785607196	0.7186016314553624	0.4394293493652303	0.4562747305621478	-0.2869266673500067
117800.7507324219	-6.619565217391304	2.41304347826087	2.934782608695652	0.7633587786259541	0.8244274809160305	-3.618320610687023	-1.857571214392804	1.131934032983508	-0.5232383808095952	0.7180181959995452	0.4401430167764661	0.4560713427951786	-0.2876159336293327
117820.2819824219	-6.58695652173913	2.391304347826087	2.989130434782608	1.175572519083969	1.282442748091603	-3.053435114503817	-1.842578710644678	1.143928035982009	-0.5187406296851574	0.7178835005703305	0.4407732796670198	0.4552831494525227	-0.2882350592226064
117839.8132324219	-6.565217391304348	2.326086956521739	2.978260869565217	0.9465648854961831	1.053435114503817	-2.946564885496183	-1.84407796101949	1.119940029985008	-0.52023988005997	0.7175005395616396	0.4409194410590197	0.4550006242869391	-0.289408801046985
117859.3444824219	-6.576086956521739	2.347826086956522	2.956521739130435	1.083969465648855	0.6106870229007634	-3.389312977099237	-1.850074962518741	1.128935532233883	-0.5157421289355322	0.717114088458894	0.4412857383696629	0.4546182579438484	-0.2904075081491721
117878.8757324219	-6.565217391304348	2.402173913043478	2.967391304347826	0.7175572519083969	0.9618320610687022	-3.32824427480916	-1.845577211394303	1.137931034482759	-0.52023988005997	0.7169042725372915	0.4419735864559022	0.4539190175570789	-0.2909727451035584
117898.4069824219	-6.554347826086956	2.402173913043478	2.934782608695652	1.022900763358779	1.022900763358779	-3.32824427480916	-1.851574212893553	1.125937031484258	-0.5157421289355322	0.7164803419035276	0.4426686186262976	0.4534795263818796	-0.2916448746365272
117917.9382324219	-6.543478260869565	2.326086956521739	2.967391304347826	1.206106870229008	0.7633587786259541	-2.916030534351145	-1.84407796101949	1.131934032983508	-0.5247376311844078	0.7161564416693381	0.442975285074913	0.4530081004808664	-0.2927054983546233
117937.4694824219	-6.58695652173913	2.33695652173913	2.967391304347826	0.9923664122137405	0.8854961832061068	-3.32824427480916	-1.850074962518741	1.124437781109445	-0.5157421289355322	0.7157307272492409	0.4432150410777043	0.4527265741548656	-0.29381729439868
117957.0007324219	-6.576086956521739	2.402173913043478	2.967391304347826	1.068702290076336	0.6412213740458015	-3.511450381679389	-1.851574212893553	1.136431784107946	-0.52023988005997	0.7154596656477741	0.4438838280304786	0.4520470425854663	-0.2945133024736191
117976.5319824219	-6.543478260869565	2.41304347826087	2.956521739130435	1.022900763358779	0.8854961832061068	-3.267175572519084	-1.853073463268366	1.134932533733133	-0.5292353823088456	0.715132740104184	0.4446666300669943	0.4513986025046816	-0.295120405585186
117996.0632324219	-6.543478260869565	2.347826086956522	2.967391304347826	1.114503816793893	1.068702290076336	-2.809160305343511	-1.850074962518741	1.133433283358321	-0.52023988005997	0.7148359647516024	0.4450637840886994	0.4508677139031187	-0.2960507999483687
118015.5944824219	-6.576086956521739	2.33695652173913	2.967391304347826	0.7938931297709924	0.7786259541984733	-3.221374045801527	-1.856071964017991	1.125937031484258	-0.5232383808095952	0.7143794298892913	0.4452822600942981	0.4506238710200212	-0.2971933139612942
118035.1257324219	-6.58695652173913	2.402173913043478	2.956521739130435	1.022900763358779	0.6564885496183206	-3.358778625954198	-1.853073463268366	1.134932533733133	-0.5157421289355322	0.7140389666024499	0.4459474229805565	0.4500370089111203	-0.2979025691742824
118054.6569824219	-6.554347826086956	2.41304347826087	2.956521739130435	0.9923664122137405	1.129770992366412	-3.526717557251908	-1.850074962518741	1.136431784107946	-0.5187406296851574	0.7137329936643742	0.4466838041425338	0.4493812587882517	-0.2985218201765683
118074.1882324219	-6.543478260869565	2.347826086956522	2.978260869565217	1.068702290076336	1.022900763358779	-2.977099236641221	-1.854572713643178	1.122938530734633	-0.5157421289355322	0.7134387285722251	0.4469177164385428	0.4488864938414898	-0.2996175077549695
118093.7194824219	-6.554347826086956	2.33695652173913	2.967391304347826	1.007633587786259	0.7022900763358778	-3.16030534351145	-1.857571214392804	1.125937031484258	-0.5187406296851574	0.7130383725830044	0.4471626544661383	0.448513113056923	-0.3007620772154719
118113.2507324219	-6.597826086956522	2.369565217391304	2.967391304347826	0.9618320610687022	0.3053435114503817	-3.572519083969465	-1.853073463268366	1.131934032983508	-0.5187406296851574	0.712616534765784	0.4476030956731549	0.4480734894486315	-0.3017603207440338
118132.7819824219	-6.576086956521739	2.423913043478261	2.945652173913044	0.916030534351145	1.068702290076336	-3.679389312977099	-1.853073463268366	1.139430284857571	-0.5157421289355322	0.7122178726287731	0.4484430581336265	0.4474864758903634	-0.302324956652819
118152.3132324219	-6.565217391304348	2.358695652173913	2.978260869565217	1.114503816793893	0.9007633587786259	-3.251908396946565	-1.841079460269865	1.122938530734633	-0.5187406296851574	0.7118457315079946	0.448828315574981	0.4469901975680059	-0.3033620954405611
118171.8444824219	-6.554347826086956	2.326086956521739	2.956521739130435	1.007633587786259	1.145038167938931	-3.465648854961832	-1.850074962518741	1.116941529235382	-0.5142428785607196	0.7113239604337834	0.4490532212074724	0.4467773830264729	-0.3045642754034141
118191.3757324219	-6.58695652173913	2.369565217391304	2.978260869565217	1.068702290076336	0.6870229007633587	-3.435114503816794	-1.841079460269865	1.146926536731634	-0.5157421289355322	0.7110438304030941	0.4496351110133199	0.4460563483764318	-0.3054155730522251
118210.9069824219	-6.58695652173913	2.423913043478261	2.956521739130435	0.6870229007633587	0.6412213740458015	-3.587786259541985	-1.854572713643178	1.151424287856072	-0.5157421289355322	0.710742293162603	0.4504444194125316	0.4453236847258866	-0.3059935188075578
118230.4382324219	-6.554347826086956	2.380434782608696	2.978260869565217	0.9007633587786259	1.114503816793893	-3.007633587786259	-1.850074962518741	1.139430284857571	-0.5187406296851574	0.7104612703376881	0.4509931240968026	0.4446477949679363	-0.3068196926497979
118249.9694824219	-6.554347826086956	2.33695652173913	2.934782608695652	0.9465648854961831	1.114503816793893	-3.221374045801527	-1.847076461769115	1.125937031484258	-0.5232383808095952	0.7098078645141918	0.4514360358155125	0.4445076477317952	-0.3078818801893427
118269.5007324219	-6.576086956521739	2.358695652173913	2.956521739130435	0.9923664122137405	1.068702290076336	-3.236641221374046	-1.865067466266867	1.133433283358321	-0.5337331334332833	0.7092138885794938	0.4519247809858818	0.4442449857763813	-0.3089110635593344
118289.0319824219	-6.608695652173913	2.41304347826087	2.956521739130435	1.267175572519084	0.9312977099236641	-3.618320610687023	-1.854572713643178	1.143928035982009	-0.527736131934033	0.7086969002676445	0.452735107028871	0.4437116351298043	-0.3096766236980514
118308.5632324219	-6.576086956521739	2.380434782608696	2.956521739130435	0.9618320610687022	0.9007633587786259	-3.374045801526718	-1.863568215892054	1.139430284857571	-0.5232383808095952	0.7082784427174435	0.4532630853081963	0.4431907043704976	-0.3106062179645323
118328.0944824219	-6.565217391304348	2.315217391304348	2.956521739130435	0.9312977099236641	0.9312977099236641	-2.931297709923664	-1.845577211394303	1.119940029985008	-0.5097451274362819	0.7078395459365691	0.4534256643804313	0.4428499711933002	-0.3118529254369266
118347.6257324219	-6.576086956521739	2.326086956521739	2.956521739130435	1.251908396946565	0.8549618320610687	-3.221374045801527	-1.851574212893553	1.11544227886057	-0.5142428785607196	0.7072955771292073	0.4536875351236605	0.4425556430695741	-0.3131215256640059
118367.1569824219	-6.554347826086956	2.391304347826087	2.967391304347826	0.9312977099236641	0.5038167938931297	-3.49618320610687	-1.859070464767616	1.125937031484258	-0.5172413793103449	0.7070022991156355	0.4542278291481069	0.4418129390752077	-0.3140480140652544
118386.6882324219	-6.554347826086956	2.391304347826087	2.989130434782608	0.9770992366412213	1.038167938931298	-3.343511450381679	-1.850074962518741	1.130434782608696	-0.512743628185907	0.706783009769141	0.4547680459407105	0.4409653477592589	-0.3149497794387194
118406.2194824219	-6.543478260869565	2.33695652173913	2.956521739130435	1.053435114503817	1.022900763358779	-3.114503816793893	-1.848575712143928	1.12143928035982	-0.5187406296851574	0.7062573178365693	0.4551787126374118	0.4405713451857417	-0.3160851631527012
118425.7507324219	-6.576086956521739	2.315217391304348	2.956521739130435	0.8396946564885496	0.6106870229007634	-3.083969465648855	-1.842578710644678	1.119940029985008	-0.512743628185907	0.7057091317361258	0.4554520918340157	0.4402634120087278	-0.3173423096195904
118445.2819824219	-6.565217391304348	2.402173913043478	2.967391304347826	1.083969465648855	0.7175572519083969	-3.557251908396947	-1.851574212893553	1.124437781109445	-0.5172413793103449	0.7052914267278244	0.4561454592535268	0.4395707673572549	-0.3182339766140205
118464.8132324219	-6.58695652173913	2.41304347826087	2.967391304347826	1.068702290076336	0.916030534351145	-3.694656488549618	-1.851574212893553	1.136431784107946	-0.52023988005997	0.7048163710335481	0.4569256828833124	0.4389114829894975	-0.3190760309780076
118484.3444824219	-6.565217391304348	2.33695652173913	2.967391304347826	0.8396946564885496	1.053435114503817	-2.931297709923664	-1.850074962518741	1.119940029985008	-0.5187406296851574	0.7042925249451766	0.457280644697469	0.4385229895624808	-0.3202562082405259
118503.8757324219	-6.576086956521739	2.326086956521739	2.956521739130435	0.9923664122137405	0.7633587786259541	-3.053435114503817	-1.850074962518741	1.118440779610195	-0.5172413793103449	0.7036892061877978	0.4576350153847467	0.4382054817267736	-0.3215083973603116
118523.4069824219	-6.576086956521739	2.402173913043478	2.956521739130435	1.099236641221374	0.7175572519083969	-3.374045801526718	-1.848575712143928	1.133433283358321	-0.52023988005997	0.7032033817213286	0.4584428531212187	0.4375109053672236	-0.3223652618420859
118542.9382324219	-6.58695652173913	2.423913043478261	2.934782608695652	0.7480916030534351	0.9312977099236641	-3.541984732824427	-1.857571214392804	1.134932533733133	-0.5172413793103449	0.7026537686740811	0.4592981154975024	0.4369447986330735	-0.3231132393079189
118562.4694824219	-6.532608695652174	2.347826086956522	2.945652173913044	1.312977099236641	1.282442748091603	-2.946564885496183	-1.853073463268366	1.137931034482759	-0.512743628185907	0.7021775203127171	0.459867350742618	0.4363162075959307	-0.3241865461081857
118582.0007324219	-6.565217391304348	2.315217391304348	2.945652173913044	0.7938931297709924	0.7175572519083969	-3.267175572519084	-1.853073463268366	1.122938530734633	-0.5142428785607196	0.7015787570396274	0.4601108121343461	0.4360113095581748	-0.3255448143730284
118601.5319824219	-6.576086956521739	2.358695652173913	2.967391304347826	0.9770992366412213	0.9923664122137405	-3.312977099236641	-1.851574212893553	1.142428785607196	-0.512743628185907	0.7011232760233651	0.4606391039861892	0.4353459323540956	-0.3266675479440958
118621.0632324219	-6.576086956521739	2.41304347826087	2.956521739130435	0.7633587786259541	0.8091603053435115	-3.648854961832061	-1.851574212893553	1.143928035982009	-0.512743628185907	0.7006908239639207	0.4614046769307898	0.4345656801209108	-0.3275526873347336
118640.5944824219	-6.565217391304348	2.347826086956522	2.923913043478261	1.022900763358779	1.129770992366412	-3.022900763358778	-1.845577211394303	1.130434782608696	-0.5232383808095952	0.6999440506225707	0.4620669136028899	0.4342470322873156	-0.3286365900219065
118660.1257324219	-6.554347826086956	2.326086956521739	2.967391304347826	0.9618320610687022	0.6106870229007634	-3.053435114503817	-1.845577211394303	1.149925037481259	-0.5112443778110944	0.6995402232254123	0.4624418348288952	0.4334958908682922	-0.3299580853534748
118679.6569824219	-6.608695652173913	2.358695652173913	2.945652173913044	0.9923664122137405	0.6564885496183206	-3.541984732824427	-1.851574212893553	1.12743628185907	-0.512743628185907	0.6988448195028417	0.4629497021297159	0.4331233727121913	-0.3312063338199682
118699.1882324219	-6.554347826086956	2.423913043478261	2.978260869565217	0.9770992366412213	0.6259541984732824	-3.541984732824427	-1.850074962518741	1.136431784107946	-0.5157421289355322	0.6985209907512771	0.4637043013580539	0.4321026949377309	-0.3321656324929536
118718.7194824219	-6.576086956521739	2.402173913043478	2.967391304347826	0.8702290076335878	0.9618320610687022	-3.16030534351145	-1.851574212893553	1.131934032983508	-0.52023988005997	0.6979911865171892	0.4644006582309633	0.4314174072574927	-0.3331956675801731
118738.2507324219	-6.576086956521739	2.33695652173913	2.945652173913044	0.9312977099236641	0.7480916030534351	-3.053435114503817	-1.845577211394303	1.128935532233883	-0.5142428785607196	0.697308396484062	0.464848421774638	0.431012905282617	-0.3345217787324054
118757.7819824219	-6.565217391304348	2.369565217391304	2.945652173913044	1.022900763358779	0.732824427480916	-3.358778625954198	-1.853073463268366	1.149925037481259	-0.52023988005997	0.6966854930802703	0.4655288367829276	0.4303746375061394	-0.3356931593680368
118777.3132324219	-6.58695652173913	2.423913043478261	2.945652173913044	0.8091603053435115	0.6717557251908397	-3.557251908396947	-1.856071964017991	1.137931034482759	-0.5232383808095952	0.6960664314031075	0.4663517278971889	0.4297139768230944	-0.3366800960614254
118796.8444824219	-6.543478260869565	2.391304347826087	2.956521739130435	0.9770992366412213	1.053435114503817	-3.267175572519084	-1.862068965517241	1.134932533733133	-0.5292353823088456	0.6954851831082689	0.4670237608976839	0.4290344985288838	-0.3378143956463519
118816.3757324219	-6.576086956521739	2.326086956521739	2.978260869565217	1.114503816793893	0.9770992366412213	-3.038167938931298	-1.850074962518741	1.146926536731634	-0.5187406296851574	0.6948773195422883	0.4673734431641449	0.4284393233169142	-0.3393336435521259
118835.9069824219	-6.554347826086956	2.315217391304348	2.967391304347826	0.9007633587786259	0.732824427480916	-3.32824427480916	-1.859070464767616	1.12743628185907	-0.5157421289355322	0.6942452980044684	0.4675800145699475	0.4279629738637695	-0.3409400081761201
118855.4382324219	-6.576086956521739	2.391304347826087	3	1.038167938931298	1.068702290076336	-3.526717557251908	-1.853073463268366	1.137931034482759	-0.5142428785607196	0.6937626434219282	0.4681499117258419	0.4270859878507451	-0.3422376567896321
118874.9694824219	-6.565217391304348	2.391304347826087	2.956521739130435	0.9618320610687022	0.9007633587786259	-3.251908396946565	-1.847076461769115	1.142428785607196	-0.5157421289355322	0.693119742749462	0.4689218807794494	0.4263517561040769	-0.343396959806218
118894.5007324219	-6.554347826086956	2.347826086956522	2.967391304347826	1.099236641221374	1.022900763358779	-2.885496183206107	-1.842578710644678	1.128935532233883	-0.5157421289355322	0.6924489918598685	0.4694631873501384	0.425723608000413	-0.3447870632526854
118914.0319824219	-6.543478260869565	2.358695652173913	2.956521739130435	0.7938931297709924	0.8244274809160305	-2.977099236641221	-1.853073463268366	1.122938530734633	-0.512743628185907	0.691812593901318	0.4699818995901347	0.4250967007485824	-0.346128796822583
118933.5632324219	-6.58695652173913	2.423913043478261	2.978260869565217	1.053435114503817	0.5801526717557252	-3.66412213740458	-1.851574212893553	1.140929535232384	-0.5142428785607196	0.6912165354085869	0.4707584232540945	0.4242115402510707	-0.3473482074674964
118953.0944824219	-6.565217391304348	2.445652173913044	2.978260869565217	0.9465648854961831	0.9007633587786259	-3.312977099236641	-1.856071964017991	1.125937031484258	-0.527736131934033	0.690602152264077	0.4716391463628417	0.423352588457993	-0.3484218258839011
118972.6257324219	-6.543478260869565	2.358695652173913	2.945652173913044	0.7938931297709924	1.251908396946565	-3.038167938931298	-1.850074962518741	1.125937031484258	-0.5142428785607196	0.6898335059271118	0.4722028566590851	0.422851878065218	-0.3497863426150695
118992.1569824219	-6.576086956521739	2.33695652173913	2.934782608695652	1.282442748091603	0.732824427480916	-3.068702290076336	-1.848575712143928	1.12143928035982	-0.5157421289355322	0.6889079428468112	0.4727427089542363	0.4224876646599512	-0.3513180192124587
119011.6882324219	-6.576086956521739	2.380434782608696	2.989130434782608	1.007633587786259	0.7175572519083969	-3.633587786259542	-1.856071964017991	1.125937031484258	-0.5142428785607196	0.6882771382299125	0.4732038169889793	0.4217169600453277	-0.352856251449836
119031.2194824219	-6.554347826086956	2.402173913043478	2.967391304347826	0.916030534351145	0.9618320610687022	-3.343511450381679	-1.850074962518741	1.119940029985008	-0.5097451274362819	0.6876340860538845	0.4738668610103663	0.4209160352651623	-0.3541740433595854
119050.7507324219	-6.554347826086956	2.358695652173913	2.967391304347826	1.022900763358779	1.251908396946565	-3.343511450381679	-1.860569715142429	1.142428785607196	-0.5352323838080959	0.6867795790120213	0.4745231728432091	0.4203269650487621	-0.3556498428788935
119070.2819824219	-6.576086956521739	2.315217391304348	2.978260869565217	1.206106870229008	0.7175572519083969	-2.687022900763359	-1.845577211394303	1.133433283358321	-0.5172413793103449	0.6859772945721029	0.4749292235608206	0.4197086761419085	-0.357382163951506
119089.8132324219	-6.608695652173913	2.358695652173913	2.989130434782608	1.297709923664122	0.7938931297709924	-3.297709923664122	-1.851574212893553	1.122938530734633	-0.5157421289355322	0.6851477550593129	0.4754421132096826	0.4190747630342082	-0.3590316054496
119109.3444824219	-6.58695652173913	2.41304347826087	2.956521739130435	0.9465648854961831	0.9465648854961831	-3.49618320610687	-1.854572713643178	1.142428785607196	-0.512743628185907	0.6843664288187198	0.4763001143264777	0.4182681081499236	-0.360322885622299
119128.8757324219	-6.543478260869565	2.358695652173913	2.934782608695652	0.9618320610687022	1.083969465648855	-3.083969465648855	-1.845577211394303	1.145427286356822	-0.5172413793103449	0.6834987991284002	0.4770758222991895	0.4175757288051295	-0.361743779601602
119148.4069824219	-6.576086956521739	2.326086956521739	2.956521739130435	0.8396946564885496	0.8396946564885496	-3.221374045801527	-1.841079460269865	1.122938530734633	-0.52023988005997	0.682568185206171	0.477559050978792	0.4170782958387438	-0.3634332407923622
119167.9382324219	-6.576086956521739	2.391304347826087	2.978260869565217	0.9007633587786259	0.9465648854961831	-3.297709923664122	-1.854572713643178	1.12743628185907	-0.5142428785607196	0.6818487066484495	0.478216979849139	0.4162080924458115	-0.3649132571014975
119187.4694824219	-6.597826086956522	2.434782608695652	2.967391304347826	1.145038167938931	0.8396946564885496	-3.450381679389313	-1.847076461769115	1.133433283358321	-0.52023988005997	0.6810389903398799	0.4791624607416776	0.4152916024550563	-0.3662268624543111
119207.0007324219	-6.565217391304348	2.391304347826087	2.934782608695652	1.038167938931298	0.8854961832061068	-3.343511450381679	-1.853073463268366	1.137931034482759	-0.5172413793103449	0.6801430282221374	0.4799842362845349	0.414547146206534	-0.3676564396977034
119226.5319824219	-6.554347826086956	2.326086956521739	2.967391304347826	0.8549618320610687	1.16030534351145	-2.946564885496183	-1.848575712143928	1.131934032983508	-0.5172413793103449	0.6792866683866159	0.4804303810578974	0.4138694888693782	-0.3694161843933951
119246.0632324219	-6.58695652173913	2.326086956521739	2.956521739130435	1.068702290076336	0.8244274809160305	-3.374045801526718	-1.854572713643178	1.12743628185907	-0.5172413793103449	0.6782891102549097	0.4808984657679049	0.4133328487613588	-0.3712364538491577
119265.5944824219	-6.58695652173913	2.402173913043478	2.978260869565217	0.9007633587786259	0.8091603053435115	-3.435114503816794	-1.853073463268366	1.122938530734633	-0.5262368815592203	0.6774571182956564	0.4816427491667253	0.4124581117525607	-0.3727605412261016
119285.1257324219	-6.565217391304348	2.380434782608696	2.956521739130435	0.9923664122137405	0.8854961832061068	-3.389312977099237	-1.835082458770615	1.142428785607196	-0.5187406296851574	0.6765678988443835	0.4824414872315583	0.4115555678333273	-0.3743368860217837
119304.6569824219	-6.554347826086956	2.33695652173913	2.989130434782608	1.114503816793893	0.7786259541984733	-3.114503816793893	-1.850074962518741	1.15592203898051	-0.5232383808095952	0.6757404245204718	0.4829779889881496	0.4105698633932018	-0.3762173947269623
119324.1882324219	-6.565217391304348	2.347826086956522	2.945652173913044	1.068702290076336	1.038167938931298	-3.343511450381679	-1.860569715142429	1.131934032983508	-0.5247376311844078	0.6746863906147438	0.4836555115975546	0.409941473358598	-0.3779201090721939
119343.7194824219	-6.576086956521739	2.402173913043478	2.956521739130435	0.8549618320610687	0.7786259541984733	-3.480916030534351	-1.854572713643178	1.137931034482759	-0.5157421289355322	0.6738077375748091	0.4844498272398443	0.409011759043307	-0.3794744769228916
119363.2507324219	-6.565217391304348	2.41304347826087	3	0.9618320610687022	0.8854961832061068	-3.282442748091603	-1.851574212893553	1.139430284857571	-0.5157421289355322	0.673094225603862	0.4851731643087289	0.407803968765741	-0.3811129585205718
119382.7819824219	-6.554347826086956	2.358695652173913	2.978260869565217	0.9465648854961831	1.16030534351145	-2.961832061068702	-1.851574212893553	1.140929535232384	-0.5187406296851574	0.6721813263739336	0.4858073440256743	0.4068976593645368	-0.3828809002399583
119402.3132324219	-6.576086956521739	2.347826086956522	2.967391304347826	0.8396946564885496	0.8396946564885496	-3.175572519083969	-1.841079460269865	1.145427286356822	-0.5142428785607196	0.6711798158773141	0.4864159885875555	0.4060832608873523	-0.3847252604552764
119421.8444824219	-6.565217391304348	2.402173913043478	2.967391304347826	0.9618320610687022	0.6564885496183206	-3.526717557251908	-1.847076461769115	1.130434782608696	-0.5232383808095952	0.6702170482204056	0.4872206216087663	0.4051263387427277	-0.3863907656903909
119441.3757324219	-6.565217391304348	2.423913043478261	2.956521739130435	0.732824427480916	1.038167938931298	-3.251908396946565	-1.850074962518741	1.148425787106447	-0.5157421289355322	0.6692989639658156	0.4881373660776706	0.4040917850241548	-0.3879054497542314
119460.9069824219	-6.532608695652174	2.347826086956522	2.956521739130435	0.9465648854961831	1.007633587786259	-3.007633587786259	-1.848575712143928	1.139430284857571	-0.5142428785607196	0.6683041284274053	0.4887545086961664	0.4032086786649857	-0.3897581090949763
119480.4382324219	-6.554347826086956	2.347826086956522	2.967391304347826	1.068702290076336	0.6106870229007634	-3.16030534351145	-1.847076461769115	1.134932533733133	-0.5157421289355322	0.6672790360238445	0.4893306074919128	0.4023174031635428	-0.391707737690268
119499.9694824219	-6.576086956521739	2.347826086956522	2.989130434782608	1.038167938931298	0.8702290076335878	-3.32824427480916	-1.839580209895052	1.12743628185907	-0.5187406296851574	0.6662083521176421	0.4898782762297154	0.401465254660228	-0.393714814742215
119519.5007324219	-6.58695652173913	2.402173913043478	2.945652173913044	0.916030534351145	0.8702290076335878	-3.358778625954198	-1.836581709145427	1.149925037481259	-0.5157421289355322	0.6650983042475244	0.490803560670309	0.4005366174618407	-0.3953814975345217
119539.0319824219	-6.565217391304348	2.358695652173913	2.945652173913044	1.022900763358779	0.9312977099236641	-3.114503816793893	-1.850074962518741	1.139430284857571	-0.5262368815592203	0.6639220847015225	0.4915792779286751	0.3997341952692818	-0.3972025328332215
119558.5632324219	-6.576086956521739	2.347826086956522	2.989130434782608	1.068702290076336	0.8549618320610687	-3.251908396946565	-1.853073463268366	1.142428785607196	-0.5322338830584708	0.6628072349213345	0.4921854873853521	0.3988092859867657	-0.399238235586103
119578.0944824219	-6.58695652173913	2.380434782608696	2.945652173913044	0.8396946564885496	0.6870229007633587	-3.114503816793893	-1.84407796101949	1.16191904047976	-0.52023988005997	0.6616812057132637	0.4930315293256836	0.3978360398915489	-0.4010291491400955
119597.6257324219	-6.565217391304348	2.423913043478261	2.978260869565217	0.8091603053435115	0.8396946564885496	-3.541984732824427	-1.853073463268366	1.137931034482759	-0.5232383808095952	0.6607036151534204	0.4938518256698529	0.3966690778451927	-0.4027837507735371
119617.1569824219	-6.543478260869565	2.369565217391304	2.956521739130435	1.022900763358779	1.16030534351145	-2.961832061068702	-1.863568215892054	1.145427286356822	-0.5307346326836582	0.6595688196103768	0.4946365599374522	0.3957000914884459	-0.4046295631402296
119636.6882324219	-6.554347826086956	2.33695652173913	2.945652173913044	0.8549618320610687	1.099236641221374	-3.175572519083969	-1.853073463268366	1.145427286356822	-0.527736131934033	0.6583275287076723	0.4953051431081422	0.3948997728101583	-0.4066101936631165
119656.2194824219	-6.58695652173913	2.358695652173913	2.956521739130435	0.916030534351145	0.6259541984732824	-3.221374045801527	-1.850074962518741	1.12743628185907	-0.5247376311844078	0.657117951179595	0.4959660325336603	0.3940410668878219	-0.4085894399225933
119675.7507324219	-6.576086956521739	2.402173913043478	2.945652173913044	0.9007633587786259	0.8091603053435115	-3.435114503816794	-1.84407796101949	1.140929535232384	-0.527736131934033	0.6559381472594554	0.4968568404032199	0.393016083699716	-0.41038614141769
119695.2819824219	-6.543478260869565	2.380434782608696	2.967391304347826	0.9618320610687022	0.9618320610687022	-3.374045801526718	-1.854572713643178	1.12743628185907	-0.5142428785607196	0.6548811479038902	0.4974958908328859	0.3918996071807398	-0.4123629695014553
119714.8132324219	-6.565217391304348	2.326086956521739	2.934782608695652	1.145038167938931	0.8091603053435115	-2.931297709923664	-1.857571214392804	1.122938530734633	-0.5157421289355322	0.6535927877147573	0.4980969482483377	0.3911124672055094	-0.4144236190051967
119734.3444824219	-6.565217391304348	2.326086956521739	2.967391304347826	0.8702290076335878	0.8549618320610687	-3.221374045801527	-1.853073463268366	1.146926536731634	-0.5082458770614693	0.6524367132546327	0.4985609974437015	0.390109064118975	-0.416627153600976
119753.8757324219	-6.597826086956522	2.391304347826087	2.967391304347826	0.916030534351145	0.7938931297709924	-3.49618320610687	-1.850074962518741	1.128935532233883	-0.5247376311844078	0.6512141908179164	0.4993326511041982	0.3890855073937646	-0.4185683327185132
119773.4069824219	-6.565217391304348	2.41304347826087	2.945652173913044	0.8549618320610687	0.916030534351145	-3.190839694656488	-1.854572713643178	1.119940029985008	-0.5307346326836582	0.6500178063681208	0.5002607265220662	0.3880073045465156	-0.4203170095565228
119792.9382324219	-6.543478260869565	2.33695652173913	2.978260869565217	1.053435114503817	1.007633587786259	-3.114503816793893	-1.848575712143928	1.136431784107946	-0.512743628185907	0.64887105393384	0.5007733744526302	0.3868650085932258	-0.4225255589100814
119812.4694824219	-6.565217391304348	2.347826086956522	2.967391304347826	1.022900763358779	0.7175572519083969	-3.297709923664122	-1.859070464767616	1.118440779610195	-0.5172413793103449	0.6476312539085527	0.5013344084011542	0.3858628249753809	-0.4246733453089787
119832.0007324219	-6.554347826086956	2.41304347826087	2.967391304347826	1.022900763358779	0.9923664122137405	-3.435114503816794	-1.857571214392804	1.11544227886057	-0.5172413793103449	0.6464822569941225	0.5021398643018258	0.3846505369791801	-0.426567945903531
119851.5319824219	-6.565217391304348	2.41304347826087	2.978260869565217	1.083969465648855	0.9923664122137405	-3.267175572519084	-1.848575712143928	1.12743628185907	-0.5172413793103449	0.6453323522464279	0.5029469331898042	0.3833659702314507	-0.4285102920672519
119871.0632324219	-6.554347826086956	2.358695652173913	2.945652173913044	1.236641221374046	0.9770992366412213	-3.068702290076336	-1.84407796101949	1.136431784107946	-0.5172413793103449	0.6440082089616965	0.5037063397923217	0.3822907041700626	-0.4305661012529061
119890.5944824219	-6.576086956521739	2.33695652173913	2.956521739130435	0.8244274809160305	0.6870229007633587	-3.251908396946565	-1.851574212893553	1.128935532233883	-0.5112443778110944	0.6426933780205425	0.5042334586344972	0.3813225185628417	-0.4327666552299612
119910.1257324219	-6.576086956521739	2.402173913043478	2.967391304347826	1.068702290076336	0.8396946564885496	-3.603053435114504	-1.853073463268366	1.125937031484258	-0.5142428785607196	0.6414425423030311	0.5049793194241259	0.3801302252378589	-0.4347969224113544
119929.6569824219	-6.576086956521739	2.402173913043478	2.967391304347826	0.9770992366412213	1.099236641221374	-3.541984732824427	-1.853073463268366	1.136431784107946	-0.5247376311844078	0.6401400758963921	0.5057879219991162	0.3789558391363123	-0.4367971304572307
119949.1882324219	-6.554347826086956	2.33695652173913	2.945652173913044	0.7633587786259541	1.099236641221374	-3.053435114503817	-1.851574212893553	1.136431784107946	-0.5097451274362819	0.6388117754829765	0.5063785461267416	0.37793542328606	-0.4389363272189272
119968.7194824219	-6.554347826086956	2.315217391304348	2.956521739130435	0.8702290076335878	1.099236641221374	-3.16030534351145	-1.845577211394303	1.122938530734633	-0.52023988005997	0.6373920774868057	0.5069291401572662	0.376985155668879	-0.441176131292004
119988.2507324219	-6.58695652173913	2.380434782608696	2.945652173913044	0.7938931297709924	0.7022900763358778	-3.557251908396947	-1.850074962518741	1.131934032983508	-0.5187406296851574	0.6360265892665959	0.5076671977671946	0.3758911313574118	-0.4432268622544778
120007.7819824219	-6.565217391304348	2.423913043478261	2.967391304347826	0.8702290076335878	0.9465648854961831	-3.374045801526718	-1.850074962518741	1.139430284857571	-0.5247376311844078	0.6347949839800315	0.5085307050288478	0.3745065453012974	-0.4451704144292852
120027.3132324219	-6.543478260869565	2.369565217391304	2.967391304347826	1.129770992366412	0.9312977099236641	-3.099236641221374	-1.848575712143928	1.134932533733133	-0.5247376311844078	0.6334794174302655	0.509244337582186	0.3732104310754547	-0.4473119789019356
120046.8444824219	-6.543478260869565	2.326086956521739	2.978260869565217	0.8396946564885496	0.8854961832061068	-3.145038167938931	-1.845577211394303	1.139430284857571	-0.52023988005997	0.6321378610135335	0.5097331137758709	0.3720098473598471	-0.4496471403899875
120066.3757324219	-6.543478260869565	2.369565217391304	2.967391304347826	1.022900763358779	0.5496183206106871	-3.221374045801527	-1.857571214392804	1.142428785607196	-0.5397301349325337	0.6307655886498248	0.5104695083110965	0.3707047818410939	-0.4518114850023339
120085.9069824219	-6.565217391304348	2.402173913043478	2.967391304347826	1.129770992366412	0.9312977099236641	-3.572519083969465	-1.845577211394303	1.136431784107946	-0.5142428785607196	0.6294263412636252	0.5112212920662373	0.3693690438138724	-0.4539182535805748
120105.4382324219	-6.543478260869565	2.391304347826087	2.945652173913044	1.083969465648855	0.9007633587786259	-3.251908396946565	-1.848575712143928	1.133433283358321	-0.5157421289355322	0.6280644137575913	0.5120031866646909	0.368072251524697	-0.4559721994530754
120124.9694824219	-6.543478260869565	2.315217391304348	2.978260869565217	1.129770992366412	0.7633587786259541	-3.053435114503817	-1.848575712143928	1.128935532233883	-0.5187406296851574	0.6266314193765668	0.5124613502296093	0.3668859265638603	-0.4583788233113883
120144.5007324219	-6.597826086956522	2.33695652173913	2.945652173913044	1.16030534351145	0.7175572519083969	-3.343511450381679	-1.848575712143928	1.125937031484258	-0.5112443778110944	0.6250746419306547	0.5130699985742128	0.3658721552353726	-0.4606283041691474
120164.0319824219	-6.576086956521739	2.402173913043478	2.978260869565217	1.007633587786259	0.6564885496183206	-3.465648854961832	-1.859070464767616	1.139430284857571	-0.52023988005997	0.6237310521446878	0.5137677997525231	0.3644717292164231	-0.4627770317657551
120183.5632324219	-6.543478260869565	2.380434782608696	2.934782608695652	1.099236641221374	1.267175572519084	-3.114503816793893	-1.847076461769115	1.140929535232384	-0.5247376311844078	0.6222540920410699	0.5146291726046539	0.3632164616815491	-0.4647907718596926
120203.0944824219	-6.565217391304348	2.358695652173913	2.934782608695652	0.9618320610687022	1.007633587786259	-3.083969465648855	-1.850074962518741	1.125937031484258	-0.5187406296851574	0.6207457313911544	0.5153453858525915	0.3620832659622242	-0.4668935411314163
120222.6257324219	-6.565217391304348	2.369565217391304	2.989130434782608	1.145038167938931	0.4732824427480916	-3.404580152671755	-1.850074962518741	1.130434782608696	-0.5217391304347826	0.6193542855974573	0.5158915657648878	0.3606705630839375	-0.4692258584194091
120242.1569824219	-6.58695652173913	2.423913043478261	2.956521739130435	1.038167938931298	0.8854961832061068	-3.465648854961832	-1.845577211394303	1.139430284857571	-0.5172413793103449	0.6179410333345389	0.516704406978143	0.3592775500152388	-0.4712590340628555
120261.6882324219	-6.543478260869565	2.41304347826087	3	0.8244274809160305	1.206106870229008	-3.374045801526718	-1.84407796101949	1.140929535232384	-0.5172413793103449	0.6166637429660524	0.5173366602490731	0.3577018655603347	-0.4734321318289345
120281.2194824219	-6.565217391304348	2.347826086956522	2.945652173913044	1.145038167938931	1.221374045801527	-2.824427480916031	-1.847076461769115	1.140929535232384	-0.5187406296851574	0.6151111125116162	0.5180233774663541	0.3565067673393712	-0.4755975446785911
120300.7507324219	-6.554347826086956	2.33695652173913	2.978260869565217	1.190839694656489	0.9618320610687022	-3.282442748091603	-1.851574212893553	1.145427286356822	-0.5247376311844078	0.6135795858244858	0.518546959681263	0.3552091286074218	-0.4779703101853997
120320.2819824219	-6.532608695652174	2.402173913043478	2.91304347826087	0.8244274809160305	1.236641221374046	-3.465648854961832	-1.845577211394303	1.130434782608696	-0.5142428785607196	0.6120840687932031	0.5193720346541824	0.3539422228770289	-0.4799277916662045
120339.8132324219	-6.673913043478261	2.41304347826087	2.934782608695652	1.16030534351145	0.7480916030534351	-3.49618320610687	-1.857571214392804	1.136431784107946	-0.5082458770614693	0.6104780897021123	0.5201328220664425	0.3528103872666932	-0.4819784020467973
120359.3444824219	-6.521739130434782	2.347826086956522	3.054347826086957	1.114503816793893	-0.1374045801526718	-2.992366412213741	-1.847076461769115	1.119940029985008	-0.5142428785607196	0.6092792062826641	0.5202708552897385	0.3510172547284547	-0.484648298058035
120378.8757324219	-6.597826086956522	2.33695652173913	2.945652173913044	1.083969465648855	2.152671755725191	-3.114503816793893	-1.850074962518741	1.130434782608696	-0.5112443778110944	0.6075616907378817	0.5209561843646636	0.3500422298536395	-0.4867688190907763
120398.4069824219	-6.543478260869565	2.402173913043478	2.967391304347826	0.9007633587786259	-0.1984732824427481	-3.435114503816794	-1.854572713643178	1.12143928035982	-0.5112443778110944	0.6062158513409706	0.5214822020483186	0.3484689964480984	-0.4890071707492991
120417.9382324219	-6.565217391304348	2.402173913043478	2.891304347826087	0.8854961832061068	1.679389312977099	-3.435114503816794	-1.848575712143928	1.119940029985008	-0.512743628185907	0.6045616656575065	0.5223949360028433	0.347378624569273	-0.4908531495756817
120437.4694824219	-6.532608695652174	2.347826086956522	2.967391304347826	0.7786259541984733	0.2900763358778626	-3.190839694656488	-1.859070464767616	1.131934032983508	-0.5097451274362819	0.6031527987816665	0.522767443249143	0.3459370376982475	-0.4932022582563442
120457.0007324219	-6.58695652173913	2.33695652173913	2.967391304347826	1.038167938931298	1.267175572519084	-3.190839694656488	-1.851574212893553	1.124437781109445	-0.5172413793103449	0.6015077679515627	0.523300544786483	0.3447633814509254	-0.495462567436353
120476.5319824219	-6.565217391304348	2.402173913043478	2.989130434782608	1.145038167938931	0.4122137404580152	-3.297709923664122	-1.848575712143928	1.12143928035982	-0.5097451274362819	0.600106175881833	0.5238332312275917	0.3431654009013307	-0.4977035575062448
120496.0632324219	-6.58695652173913	2.423913043478261	2.945652173913044	0.9923664122137405	1.221374045801527	-3.511450381679389	-1.851574212893553	1.12743628185907	-0.5112443778110944	0.598564550575974	0.524592425593109	0.3418016879612388	-0.4996947787509578
120515.5944824219	-6.543478260869565	2.358695652173913	2.91304347826087	1.267175572519084	0.5496183206106871	-3.267175572519084	-1.848575712143928	1.131934032983508	-0.5187406296851574	0.5969315415978895	0.5252618385367652	0.3404869680926784	-0.501837982003754
120535.1257324219	-6.565217391304348	2.326086956521739	2.967391304347826	1.114503816793893	1.435114503816794	-2.977099236641221	-1.854572713643178	1.145427286356822	-0.5187406296851574	0.5953122651035678	0.5257560184663777	0.3391972516767244	-0.5041122300823481
120554.6569824219	-6.565217391304348	2.380434782608696	2.978260869565217	1.099236641221374	0.3511450381679389	-3.343511450381679	-1.853073463268366	1.136431784107946	-0.5247376311844078	0.5938044740520719	0.5262697887083516	0.3376585540222227	-0.5063823229381442
120574.1882324219	-6.576086956521739	2.423913043478261	2.978260869565217	1.099236641221374	0.9618320610687022	-3.557251908396947	-1.854572713643178	1.124437781109445	-0.5217391304347826	0.592283904204177	0.5269236513113061	0.3361374038012502	-0.5084907946808613
120593.7194824219	-6.532608695652174	2.369565217391304	3	1.175572519083969	1.083969465648855	-3.16030534351145	-1.854572713643178	1.148425787106447	-0.5172413793103449	0.5908279836282935	0.5273602148915011	0.3345135804580616	-0.5107975743877832
120613.2507324219	-6.554347826086956	2.326086956521739	2.934782608695652	1.190839694656489	1.374045801526717	-2.916030534351145	-1.853073463268366	1.130434782608696	-0.5172413793103449	0.5891179234530991	0.5279452247546941	0.3333076176271843	-0.5129521848639644
120632.7819824219	-6.58695652173913	2.326086956521739	2.934782608695652	0.9465648854961831	0.4885496183206107	-2.992366412213741	-1.856071964017991	1.128935532233883	-0.5142428785607196	0.5874518354422954	0.528414741663837	0.3320878211424624	-0.5151658770499756
120652.3132324219	-6.58695652173913	2.41304347826087	2.956521739130435	0.9618320610687022	0.6717557251908397	-3.557251908396947	-1.857571214392804	1.128935532233883	-0.5172413793103449	0.5859034534597344	0.5290216601526294	0.3306178382074072	-0.5172475919444896
120671.8444824219	-6.554347826086956	2.391304347826087	2.989130434782608	0.9618320610687022	1.190839694656489	-3.129770992366412	-1.857571214392804	1.137931034482759	-0.512743628185907	0.5844465988227463	0.5295054667873775	0.3290310006171912	-0.5194080615466565
120691.3757324219	-6.565217391304348	2.33695652173913	2.978260869565217	1.129770992366412	1.083969465648855	-2.977099236641221	-1.847076461769115	1.134932533733133	-0.512743628185907	0.5828468108810097	0.5299213398532768	0.3276198859446661	-0.5216686486147584
120710.9069824219	-6.554347826086956	2.347826086956522	2.978260869565217	1.129770992366412	0.8549618320610687	-3.404580152671755	-1.850074962518741	1.125937031484258	-0.5157421289355322	0.5812264946284756	0.5303315853565674	0.3261937806401851	-0.5239482693804294
120730.4382324219	-6.597826086956522	2.423913043478261	2.956521739130435	0.9312977099236641	0.9923664122137405	-3.419847328244275	-1.853073463268366	1.12743628185907	-0.5187406296851574	0.5796451366756414	0.5309961035675059	0.3247358317243396	-0.5259289810599003
120749.9694824219	-6.565217391304348	2.423913043478261	2.978260869565217	0.9007633587786259	0.9465648854961831	-3.282442748091603	-1.850074962518741	1.133433283358321	-0.5112443778110944	0.5781928017428144	0.5315368393913895	0.323104429119812	-0.5279821969212287
120769.5007324219	-6.543478260869565	2.33695652173913	2.934782608695652	0.9618320610687022	1.297709923664122	-3.038167938931298	-1.860569715142429	1.112443778110944	-0.5217391304347826	0.5764688635390707	0.5320813397989702	0.3218765417715293	-0.5300647027155326
120789.0319824219	-6.554347826086956	2.347826086956522	2.967391304347826	1.221374045801527	0.5190839694656488	-3.49618320610687	-1.860569715142429	1.122938530734633	-0.52023988005997	0.5748091968383154	0.5324709795951534	0.3204485022882291	-0.5323361724514868
120808.5632324219	-6.58695652173913	2.391304347826087	2.967391304347826	1.083969465648855	0.8244274809160305	-3.66412213740458	-1.853073463268366	1.137931034482759	-0.512743628185907	0.5732133870550367	0.53294423913641	0.3189626307713927	-0.5344714127468354
120828.0944824219	-6.565217391304348	2.41304347826087	2.989130434782608	0.9007633587786259	0.9923664122137405	-3.343511450381679	-1.866566716641679	1.130434782608696	-0.5337331334332833	0.5716602587536563	0.5334816936493599	0.3173774031606579	-0.5365383630885217
120847.6257324219	-6.554347826086956	2.347826086956522	2.934782608695652	0.7786259541984733	1.068702290076336	-3.114503816793893	-1.857571214392804	1.130434782608696	-0.5142428785607196	0.5700226786629651	0.5339488983906059	0.3160519900384011	-0.5385943365002301
120867.1569824219	-6.554347826086956	2.326086956521739	2.978260869565217	0.8091603053435115	0.732824427480916	-3.068702290076336	-1.850074962518741	1.133433283358321	-0.5247376311844078	0.568402206622451	0.534258915855928	0.3146233211235586	-0.5408313120931136
120886.6882324219	-6.565217391304348	2.402173913043478	2.978260869565217	1.038167938931298	0.5038167938931297	-3.297709923664122	-1.845577211394303	1.12743628185907	-0.5157421289355322	0.5668877176643566	0.534704098773448	0.3129811011980316	-0.5429297124021109
120906.2194824219	-6.554347826086956	2.423913043478261	2.978260869565217	0.9923664122137405	0.9007633587786259	-3.49618320610687	-1.860569715142429	1.12743628185907	-0.5232383808095952	0.5653495018702717	0.5352251365575372	0.3113554484363197	-0.5449511708960901
120925.7507324219	-6.554347826086956	2.380434782608696	2.945652173913044	0.8702290076335878	1.129770992366412	-3.129770992366412	-1.850074962518741	1.122938530734633	-0.5142428785607196	0.5637432149619857	0.5357355102516628	0.3099222506862531	-0.5469270967590493
120945.2819824219	-6.543478260869565	2.326086956521739	2.967391304347826	1.114503816793893	0.7633587786259541	-3.038167938931298	-1.84407796101949	1.140929535232384	-0.5067466266866567	0.5621549924196704	0.5360081898693803	0.3084330918772608	-0.5491320539957799
120964.8132324219	-6.58695652173913	2.358695652173913	2.956521739130435	0.9618320610687022	0.5801526717557252	-3.312977099236641	-1.845577211394303	1.124437781109445	-0.5112443778110944	0.5605033681420927	0.5363911690400119	0.3070350966910396	-0.5512258497904312
120984.3444824219	-6.576086956521739	2.402173913043478	2.945652173913044	0.9923664122137405	1.053435114503817	-3.343511450381679	-1.851574212893553	1.125937031484258	-0.5157421289355322	0.558883711012096	0.5369393996691405	0.3055677831447069	-0.5531486315198839
121003.8757324219	-6.565217391304348	2.347826086956522	2.956521739130435	0.7786259541984733	0.8549618320610687	-2.900763358778626	-1.847076461769115	1.131934032983508	-0.5172413793103449	0.5572817987258502	0.5373142672363978	0.3041363608811282	-0.555185958957067
121023.4069824219	-6.554347826086956	2.293478260869565	2.989130434782608	0.9923664122137405	0.916030534351145	-3.175572519083969	-1.847076461769115	1.145427286356822	-0.5187406296851574	0.5556157295611531	0.537483726725702	0.3027321996546299	-0.5574545899546863
121042.9382324219	-6.576086956521739	2.358695652173913	2.989130434782608	1.099236641221374	0.5648854961832061	-3.343511450381679	-1.851574212893553	1.112443778110944	-0.5217391304347826	0.5539533275986592	0.5378161219778291	0.3012459218606691	-0.5595895141489132
121062.4694824219	-6.565217391304348	2.423913043478261	2.967391304347826	0.9618320610687022	1.068702290076336	-3.374045801526718	-1.857571214392804	1.146926536731634	-0.5307346326836582	0.5524044275691105	0.5383591336489333	0.2996078679084887	-0.5614747697859123
121082.0007324219	-6.565217391304348	2.380434782608696	2.934782608695652	0.8854961832061068	1.190839694656489	-2.992366412213741	-1.856071964017991	1.12743628185907	-0.5157421289355322	0.5507912542532897	0.538875077459298	0.2981766150577128	-0.5633234873179427
121101.5319824219	-6.58695652173913	2.33695652173913	2.923913043478261	0.9923664122137405	0.9923664122137405	-3.190839694656488	-1.848575712143928	1.118440779610195	-0.5172413793103449	0.5490375812065189	0.5393282117045705	0.2969189457090761	-0.5652627302073398
121121.0632324219	-6.576086956521739	2.358695652173913	2.967391304347826	0.9465648854961831	0.3358778625954199	-3.206106870229008	-1.856071964017991	1.131934032983508	-0.5217391304347826	0.5474443285686612	0.5396218048014034	0.2953953249942661	-0.5673223218527681
121140.5944824219	-6.58695652173913	2.423913043478261	2.967391304347826	0.9465648854961831	0.9007633587786259	-3.679389312977099	-1.847076461769115	1.137931034482759	-0.5112443778110944	0.545921477476779	0.5400343747181456	0.293786054683519	-0.5692296273261298
121160.1257324219	-6.543478260869565	2.423913043478261	2.956521739130435	1.022900763358779	0.5038167938931297	-3.221374045801527	-1.848575712143928	1.131934032983508	-0.5217391304347826	0.5444394107903794	0.5404776224122248	0.2920643019120937	-0.571111294931605
